,timestamp,device,ppg,accx,accy,accz
0,2016-05-23 09:00:00,4,65507.0,134.0,-140.0,17.0
1,2016-05-23 09:00:00.012500,4,65504.0,152.0,-156.0,67.0
2,2016-05-23 09:00:00.025000,4,65516.0,169.0,-162.0,70.0
3,2016-05-23 09:00:00.037500,4,65488.0,205.0,-178.0,65.0
4,2016-05-23 09:00:00.050000,4,65514.0,241.0,-193.0,69.0
5,2016-05-23 09:00:00.062500,4,65450.0,267.0,-207.0,69.0
6,2016-05-23 09:00:00.075000,4,65495.0,280.0,-219.0,79.0
7,2016-05-23 09:00:00.087500,4,65502.0,278.0,-233.0,97.0
8,2016-05-23 09:00:00.100000,4,6.0,273.0,-244.0,103.0
9,2016-05-23 09:00:00.112500,4,65496.0,263.0,-249.0,110.0
10,2016-05-23 09:00:00.125000,4,65491.0,240.0,-257.0,119.0
11,2016-05-23 09:00:00.137500,4,65504.0,229.0,-276.0,137.0
12,2016-05-23 09:00:00.150000,4,65529.0,203.0,-290.0,146.0
13,2016-05-23 09:00:00.162500,4,65484.0,157.0,-298.0,160.0
14,2016-05-23 09:00:00.175000,4,65511.0,113.0,-294.0,168.0
15,2016-05-23 09:00:00.187500,4,65477.0,112.0,-294.0,157.0
16,2016-05-23 09:00:00.200000,4,65522.0,117.0,-280.0,123.0
17,2016-05-23 09:00:00.212500,4,3.0,133.0,-271.0,78.0
18,2016-05-23 09:00:00.225000,4,65516.0,143.0,-267.0,51.0
19,2016-05-23 09:00:00.237500,4,65496.0,131.0,-271.0,60.0
20,2016-05-23 09:00:00.250000,4,65504.0,111.0,-291.0,90.0
21,2016-05-23 09:00:00.262500,4,65499.0,78.0,-321.0,140.0
22,2016-05-23 09:00:00.275000,4,65520.0,62.0,-352.0,205.0
23,2016-05-23 09:00:00.287500,4,65466.0,66.0,-376.0,223.0
24,2016-05-23 09:00:00.300000,4,65454.0,80.0,-389.0,200.0
25,2016-05-23 09:00:00.312500,4,65468.0,100.0,-374.0,147.0
26,2016-05-23 09:00:00.325000,4,65502.0,105.0,-371.0,99.0
27,2016-05-23 09:00:00.337500,4,65492.0,88.0,-363.0,80.0
28,2016-05-23 09:00:00.350000,4,65484.0,90.0,-367.0,79.0
29,2016-05-23 09:00:00.362500,4,65472.0,108.0,-394.0,87.0
30,2016-05-23 09:00:00.375000,4,65504.0,111.0,-408.0,107.0
31,2016-05-23 09:00:00.387500,4,65494.0,125.0,-436.0,130.0
32,2016-05-23 09:00:00.400000,4,65474.0,135.0,-455.0,149.0
33,2016-05-23 09:00:00.412500,4,65494.0,129.0,-456.0,147.0
34,2016-05-23 09:00:00.425000,4,65497.0,108.0,-462.0,149.0
35,2016-05-23 09:00:00.437500,4,65481.0,73.0,-467.0,169.0
36,2016-05-23 09:00:00.450000,4,65500.0,62.0,-473.0,178.0
37,2016-05-23 09:00:00.462500,4,65510.0,68.0,-476.0,166.0
38,2016-05-23 09:00:00.475000,4,65527.0,78.0,-477.0,149.0
39,2016-05-23 09:00:00.487500,4,65464.0,81.0,-477.0,133.0
40,2016-05-23 09:00:00.500000,4,65473.0,83.0,-475.0,115.0
41,2016-05-23 09:00:00.512500,4,65495.0,94.0,-470.0,94.0
42,2016-05-23 09:00:00.525000,4,65470.0,96.0,-468.0,84.0
43,2016-05-23 09:00:00.537500,4,65530.0,86.0,-477.0,89.0
44,2016-05-23 09:00:00.550000,4,65518.0,63.0,-500.0,107.0
45,2016-05-23 09:00:00.562500,4,65488.0,54.0,-518.0,129.0
46,2016-05-23 09:00:00.575000,4,65503.0,60.0,-543.0,139.0
47,2016-05-23 09:00:00.587500,4,65472.0,58.0,-555.0,136.0
48,2016-05-23 09:00:00.600000,4,65482.0,44.0,-558.0,134.0
49,2016-05-23 09:00:00.612500,4,65498.0,37.0,-544.0,135.0
50,2016-05-23 09:00:00.625000,4,65503.0,20.0,-521.0,113.0
51,2016-05-23 09:00:00.637500,4,65490.0,15.0,-500.0,98.0
52,2016-05-23 09:00:00.650000,4,65511.0,5.0,-493.0,81.0
53,2016-05-23 09:00:00.662500,4,65475.0,-3.0,-494.0,78.0
54,2016-05-23 09:00:00.675000,4,65503.0,-22.0,-499.0,73.0
55,2016-05-23 09:00:00.687500,4,65520.0,-28.0,-505.0,82.0
56,2016-05-23 09:00:00.700000,4,65457.0,-27.0,-533.0,95.0
57,2016-05-23 09:00:00.712500,4,65526.0,-19.0,-580.0,109.0
58,2016-05-23 09:00:00.725000,4,65448.0,-2.0,-622.0,136.0
59,2016-05-23 09:00:00.737500,4,65482.0,5.0,-641.0,143.0
60,2016-05-23 09:00:00.750000,4,65486.0,25.0,-640.0,122.0
61,2016-05-23 09:00:00.762500,4,65521.0,62.0,-631.0,97.0
62,2016-05-23 09:00:00.775000,4,65510.0,70.0,-631.0,99.0
63,2016-05-23 09:00:00.787500,4,65498.0,72.0,-644.0,97.0
64,2016-05-23 09:00:00.800000,4,65488.0,59.0,-655.0,105.0
65,2016-05-23 09:00:00.812500,4,65478.0,46.0,-681.0,121.0
66,2016-05-23 09:00:00.825000,4,65483.0,26.0,-705.0,138.0
67,2016-05-23 09:00:00.837500,4,65492.0,20.0,-730.0,138.0
68,2016-05-23 09:00:00.850000,4,65527.0,4.0,-753.0,128.0
69,2016-05-23 09:00:00.862500,4,65510.0,-11.0,-751.0,112.0
70,2016-05-23 09:00:00.875000,4,65504.0,-28.0,-762.0,108.0
71,2016-05-23 09:00:00.887500,4,65526.0,-42.0,-756.0,105.0
72,2016-05-23 09:00:00.900000,4,65478.0,-52.0,-750.0,119.0
73,2016-05-23 09:00:00.912500,4,65456.0,-47.0,-741.0,134.0
74,2016-05-23 09:00:00.925000,4,65488.0,-41.0,-730.0,155.0
75,2016-05-23 09:00:00.937500,4,65452.0,-40.0,-711.0,154.0
76,2016-05-23 09:00:00.950000,4,30.0,-41.0,-691.0,141.0
77,2016-05-23 09:00:00.962500,4,65473.0,-15.0,-690.0,131.0
78,2016-05-23 09:00:00.975000,4,2.0,0.0,-688.0,109.0
79,2016-05-23 09:00:00.987500,4,65477.0,8.0,-680.0,79.0
80,2016-05-23 09:00:01,4,2.0,3.0,-670.0,64.0
81,2016-05-23 09:00:01.012500,4,65504.0,0.0,-668.0,72.0
82,2016-05-23 09:00:01.025000,4,65484.0,-32.0,-679.0,82.0
83,2016-05-23 09:00:01.037500,4,65532.0,-43.0,-713.0,118.0
84,2016-05-23 09:00:01.050000,4,65464.0,-28.0,-743.0,132.0
85,2016-05-23 09:00:01.062500,4,65480.0,-2.0,-767.0,113.0
86,2016-05-23 09:00:01.075000,4,65523.0,21.0,-785.0,85.0
87,2016-05-23 09:00:01.087500,4,65482.0,32.0,-796.0,71.0
88,2016-05-23 09:00:01.100000,4,65508.0,11.0,-807.0,86.0
89,2016-05-23 09:00:01.112500,4,65518.0,-38.0,-807.0,124.0
90,2016-05-23 09:00:01.125000,4,65491.0,-70.0,-805.0,149.0
91,2016-05-23 09:00:01.137500,4,65504.0,-92.0,-801.0,156.0
92,2016-05-23 09:00:01.150000,4,65490.0,-94.0,-792.0,150.0
93,2016-05-23 09:00:01.162500,4,65496.0,-98.0,-780.0,120.0
94,2016-05-23 09:00:01.175000,4,65508.0,-89.0,-759.0,60.0
95,2016-05-23 09:00:01.187500,4,65525.0,-71.0,-747.0,36.0
96,2016-05-23 09:00:01.200000,4,0.0,-54.0,-771.0,41.0
97,2016-05-23 09:00:01.212500,4,65503.0,-35.0,-819.0,68.0
98,2016-05-23 09:00:01.225000,4,65513.0,-20.0,-867.0,101.0
99,2016-05-23 09:00:01.237500,4,65493.0,-4.0,-905.0,117.0
100,2016-05-23 09:00:01.250000,4,65504.0,1.0,-918.0,123.0
101,2016-05-23 09:00:01.262500,4,65533.0,-26.0,-917.0,129.0
102,2016-05-23 09:00:01.275000,4,65465.0,-66.0,-900.0,141.0
103,2016-05-23 09:00:01.287500,4,65501.0,-81.0,-877.0,140.0
104,2016-05-23 09:00:01.300000,4,65455.0,-97.0,-844.0,129.0
105,2016-05-23 09:00:01.312500,4,65489.0,-99.0,-826.0,104.0
106,2016-05-23 09:00:01.325000,4,65512.0,-86.0,-814.0,79.0
107,2016-05-23 09:00:01.337500,4,65489.0,-65.0,-821.0,69.0
108,2016-05-23 09:00:01.350000,4,65519.0,-48.0,-834.0,58.0
109,2016-05-23 09:00:01.362500,4,65480.0,-36.0,-859.0,69.0
110,2016-05-23 09:00:01.375000,4,65501.0,-34.0,-880.0,75.0
111,2016-05-23 09:00:01.387500,4,65496.0,-36.0,-899.0,94.0
112,2016-05-23 09:00:01.400000,4,65475.0,-44.0,-906.0,90.0
113,2016-05-23 09:00:01.412500,4,65505.0,-34.0,-907.0,91.0
114,2016-05-23 09:00:01.425000,4,65500.0,-16.0,-908.0,101.0
115,2016-05-23 09:00:01.437500,4,65445.0,-10.0,-908.0,98.0
116,2016-05-23 09:00:01.450000,4,65481.0,-21.0,-899.0,98.0
117,2016-05-23 09:00:01.462500,4,65533.0,-35.0,-878.0,78.0
118,2016-05-23 09:00:01.475000,4,65522.0,-55.0,-868.0,83.0
119,2016-05-23 09:00:01.487500,4,65493.0,-86.0,-871.0,93.0
120,2016-05-23 09:00:01.500000,4,3.0,-137.0,-845.0,50.0
121,2016-05-23 09:00:01.512500,4,65498.0,-101.0,-895.0,100.0
122,2016-05-23 09:00:01.525000,4,19.0,-55.0,-927.0,106.0
123,2016-05-23 09:00:01.537500,4,65472.0,-46.0,-932.0,100.0
124,2016-05-23 09:00:01.550000,4,65471.0,-47.0,-939.0,88.0
125,2016-05-23 09:00:01.562500,4,65480.0,-51.0,-948.0,84.0
126,2016-05-23 09:00:01.575000,4,65477.0,-50.0,-965.0,97.0
127,2016-05-23 09:00:01.587500,4,65481.0,-52.0,-961.0,100.0
128,2016-05-23 09:00:01.600000,4,65476.0,-65.0,-964.0,89.0
129,2016-05-23 09:00:01.612500,4,8.0,-53.0,-981.0,103.0
130,2016-05-23 09:00:01.625000,4,65474.0,-61.0,-992.0,94.0
131,2016-05-23 09:00:01.637500,4,65501.0,-70.0,-994.0,92.0
132,2016-05-23 09:00:01.650000,4,65492.0,-78.0,-996.0,88.0
133,2016-05-23 09:00:01.662500,4,65516.0,-76.0,-994.0,79.0
134,2016-05-23 09:00:01.675000,4,65504.0,-79.0,-985.0,76.0
135,2016-05-23 09:00:01.687500,4,65466.0,-87.0,-987.0,77.0
136,2016-05-23 09:00:01.700000,4,65520.0,-81.0,-994.0,87.0
137,2016-05-23 09:00:01.712500,4,65467.0,-73.0,-995.0,86.0
138,2016-05-23 09:00:01.725000,4,65493.0,-78.0,-995.0,83.0
139,2016-05-23 09:00:01.737500,4,65533.0,-91.0,-996.0,80.0
140,2016-05-23 09:00:01.750000,4,65486.0,-105.0,-994.0,80.0
141,2016-05-23 09:00:01.762500,4,65507.0,-95.0,-1001.0,81.0
142,2016-05-23 09:00:01.775000,4,65504.0,-79.0,-1001.0,81.0
143,2016-05-23 09:00:01.787500,4,65532.0,-65.0,-1010.0,85.0
144,2016-05-23 09:00:01.800000,4,65524.0,-42.0,-1012.0,82.0
145,2016-05-23 09:00:01.812500,4,65469.0,-43.0,-1011.0,79.0
146,2016-05-23 09:00:01.825000,4,65494.0,-59.0,-1013.0,76.0
147,2016-05-23 09:00:01.837500,4,65523.0,-73.0,-1010.0,69.0
148,2016-05-23 09:00:01.850000,4,65483.0,-66.0,-1017.0,80.0
149,2016-05-23 09:00:01.862500,4,65483.0,-56.0,-1019.0,85.0
150,2016-05-23 09:00:01.875000,4,26.0,-47.0,-1026.0,64.0
151,2016-05-23 09:00:01.887500,4,65493.0,-45.0,-1042.0,66.0
152,2016-05-23 09:00:01.900000,4,65519.0,-69.0,-1055.0,78.0
153,2016-05-23 09:00:01.912500,4,65515.0,-83.0,-1078.0,97.0
154,2016-05-23 09:00:01.925000,4,65525.0,-85.0,-1102.0,114.0
155,2016-05-23 09:00:01.937500,4,65518.0,-88.0,-1105.0,106.0
156,2016-05-23 09:00:01.950000,4,65515.0,-82.0,-1090.0,86.0
157,2016-05-23 09:00:01.962500,4,65526.0,-78.0,-1071.0,61.0
158,2016-05-23 09:00:01.975000,4,65509.0,-89.0,-1045.0,44.0
159,2016-05-23 09:00:01.987500,4,65484.0,-96.0,-1040.0,51.0
160,2016-05-23 09:00:02,4,65533.0,-95.0,-1042.0,72.0
161,2016-05-23 09:00:02.012500,4,65485.0,-95.0,-1056.0,87.0
162,2016-05-23 09:00:02.025000,4,65495.0,-113.0,-1053.0,83.0
163,2016-05-23 09:00:02.037500,4,65507.0,-159.0,-1034.0,73.0
164,2016-05-23 09:00:02.050000,4,65519.0,-182.0,-1020.0,58.0
165,2016-05-23 09:00:02.062500,4,65509.0,-229.0,-988.0,10.0
166,2016-05-23 09:00:02.075000,4,65525.0,-221.0,-993.0,-23.0
167,2016-05-23 09:00:02.087500,4,65524.0,-191.0,-1005.0,-10.0
168,2016-05-23 09:00:02.100000,4,65505.0,-158.0,-1058.0,15.0
169,2016-05-23 09:00:02.112500,4,20.0,-101.0,-1124.0,56.0
170,2016-05-23 09:00:02.125000,4,65525.0,-62.0,-1172.0,104.0
171,2016-05-23 09:00:02.137500,4,65526.0,-37.0,-1203.0,131.0
172,2016-05-23 09:00:02.150000,4,65501.0,-21.0,-1215.0,142.0
173,2016-05-23 09:00:02.162500,4,65508.0,0.0,-1216.0,134.0
174,2016-05-23 09:00:02.175000,4,65470.0,-6.0,-1198.0,111.0
175,2016-05-23 09:00:02.187500,4,65493.0,-25.0,-1173.0,92.0
176,2016-05-23 09:00:02.200000,4,21.0,-30.0,-1155.0,78.0
177,2016-05-23 09:00:02.212500,4,65533.0,-38.0,-1130.0,60.0
178,2016-05-23 09:00:02.225000,4,1.0,-45.0,-1113.0,49.0
179,2016-05-23 09:00:02.237500,4,23.0,-50.0,-1106.0,38.0
180,2016-05-23 09:00:02.250000,4,65529.0,-77.0,-1095.0,46.0
181,2016-05-23 09:00:02.262500,4,65476.0,-88.0,-1102.0,44.0
182,2016-05-23 09:00:02.275000,4,65458.0,-111.0,-1095.0,36.0
183,2016-05-23 09:00:02.287500,4,65484.0,-132.0,-1097.0,35.0
184,2016-05-23 09:00:02.300000,4,65489.0,-131.0,-1120.0,54.0
185,2016-05-23 09:00:02.312500,4,65496.0,-115.0,-1143.0,82.0
186,2016-05-23 09:00:02.325000,4,3.0,-94.0,-1166.0,99.0
187,2016-05-23 09:00:02.337500,4,65497.0,-61.0,-1171.0,108.0
188,2016-05-23 09:00:02.350000,4,65462.0,-32.0,-1162.0,103.0
189,2016-05-23 09:00:02.362500,4,65520.0,-12.0,-1138.0,80.0
190,2016-05-23 09:00:02.375000,4,65490.0,-26.0,-1094.0,41.0
191,2016-05-23 09:00:02.387500,4,65478.0,-60.0,-1069.0,16.0
192,2016-05-23 09:00:02.400000,4,65528.0,-97.0,-1060.0,6.0
193,2016-05-23 09:00:02.412500,4,65482.0,-111.0,-1059.0,5.0
194,2016-05-23 09:00:02.425000,4,65496.0,-140.0,-1051.0,14.0
195,2016-05-23 09:00:02.437500,4,65530.0,-208.0,-1037.0,10.0
196,2016-05-23 09:00:02.450000,4,65523.0,-232.0,-1040.0,14.0
197,2016-05-23 09:00:02.462500,4,65491.0,-213.0,-1064.0,24.0
198,2016-05-23 09:00:02.475000,4,65511.0,-170.0,-1089.0,41.0
199,2016-05-23 09:00:02.487500,4,65503.0,-121.0,-1123.0,48.0
200,2016-05-23 09:00:02.500000,4,65511.0,-67.0,-1154.0,60.0
201,2016-05-23 09:00:02.512500,4,15.0,-20.0,-1184.0,79.0
202,2016-05-23 09:00:02.525000,4,65489.0,0.0,-1202.0,94.0
203,2016-05-23 09:00:02.537500,4,15.0,14.0,-1212.0,85.0
204,2016-05-23 09:00:02.550000,4,5.0,21.0,-1221.0,90.0
205,2016-05-23 09:00:02.562500,4,65487.0,11.0,-1234.0,95.0
206,2016-05-23 09:00:02.575000,4,65505.0,2.0,-1230.0,86.0
207,2016-05-23 09:00:02.587500,4,65499.0,8.0,-1229.0,81.0
208,2016-05-23 09:00:02.600000,4,65534.0,-7.0,-1206.0,78.0
209,2016-05-23 09:00:02.612500,4,15.0,-53.0,-1204.0,66.0
210,2016-05-23 09:00:02.625000,4,65519.0,-97.0,-1184.0,40.0
211,2016-05-23 09:00:02.637500,4,2.0,-106.0,-1177.0,33.0
212,2016-05-23 09:00:02.650000,4,65486.0,-100.0,-1179.0,54.0
213,2016-05-23 09:00:02.662500,4,36.0,-108.0,-1170.0,59.0
214,2016-05-23 09:00:02.675000,4,0.0,-106.0,-1163.0,59.0
215,2016-05-23 09:00:02.687500,4,65511.0,-94.0,-1155.0,67.0
216,2016-05-23 09:00:02.700000,4,65532.0,-75.0,-1166.0,74.0
217,2016-05-23 09:00:02.712500,4,65533.0,-45.0,-1179.0,78.0
218,2016-05-23 09:00:02.725000,4,65498.0,-4.0,-1188.0,84.0
219,2016-05-23 09:00:02.737500,4,65509.0,13.0,-1210.0,87.0
220,2016-05-23 09:00:02.750000,4,65485.0,32.0,-1205.0,82.0
221,2016-05-23 09:00:02.762500,4,65517.0,45.0,-1200.0,74.0
222,2016-05-23 09:00:02.775000,4,65512.0,44.0,-1196.0,68.0
223,2016-05-23 09:00:02.787500,4,65521.0,38.0,-1201.0,65.0
224,2016-05-23 09:00:02.800000,4,45.0,26.0,-1209.0,61.0
225,2016-05-23 09:00:02.812500,4,65524.0,2.0,-1207.0,49.0
226,2016-05-23 09:00:02.825000,4,65496.0,-28.0,-1199.0,34.0
227,2016-05-23 09:00:02.837500,4,4.0,-70.0,-1188.0,16.0
228,2016-05-23 09:00:02.850000,4,0.0,-102.0,-1184.0,33.0
229,2016-05-23 09:00:02.862500,4,65520.0,-131.0,-1194.0,46.0
230,2016-05-23 09:00:02.875000,4,65498.0,-153.0,-1209.0,72.0
231,2016-05-23 09:00:02.887500,4,65531.0,-154.0,-1217.0,82.0
232,2016-05-23 09:00:02.900000,4,65514.0,-134.0,-1214.0,84.0
233,2016-05-23 09:00:02.912500,4,65535.0,-119.0,-1204.0,78.0
234,2016-05-23 09:00:02.925000,4,0.0,-104.0,-1201.0,63.0
235,2016-05-23 09:00:02.937500,4,65520.0,-79.0,-1201.0,50.0
236,2016-05-23 09:00:02.950000,4,24.0,-53.0,-1206.0,43.0
237,2016-05-23 09:00:02.962500,4,13.0,-30.0,-1220.0,70.0
238,2016-05-23 09:00:02.975000,4,47.0,-6.0,-1242.0,94.0
239,2016-05-23 09:00:02.987500,4,65531.0,-3.0,-1249.0,110.0
240,2016-05-23 09:00:03,4,65522.0,-24.0,-1247.0,107.0
241,2016-05-23 09:00:03.012500,4,38.0,-44.0,-1224.0,78.0
242,2016-05-23 09:00:03.025000,4,14.0,-82.0,-1190.0,36.0
243,2016-05-23 09:00:03.037500,4,15.0,-10748.0,-28314.0,-9759.0
244,2016-05-23 09:00:03.050000,4,65531.0,-76.0,-1215.0,85.0
245,2016-05-23 09:00:03.062500,4,65517.0,-78.0,-1207.0,65.0
246,2016-05-23 09:00:03.075000,4,65528.0,-55.0,-1208.0,51.0
247,2016-05-23 09:00:03.087500,4,65525.0,-55.0,-1219.0,44.0
248,2016-05-23 09:00:03.100000,4,36.0,-54.0,-1230.0,39.0
249,2016-05-23 09:00:03.112500,4,65476.0,-61.0,-1237.0,42.0
250,2016-05-23 09:00:03.125000,4,9.0,-79.0,-1256.0,50.0
251,2016-05-23 09:00:03.137500,4,65535.0,-82.0,-1268.0,60.0
252,2016-05-23 09:00:03.150000,4,23.0,-89.0,-1265.0,70.0
253,2016-05-23 09:00:03.162500,4,37.0,-114.0,-1255.0,69.0
254,2016-05-23 09:00:03.175000,4,65532.0,-120.0,-1251.0,72.0
255,2016-05-23 09:00:03.187500,4,65526.0,-119.0,-1240.0,55.0
256,2016-05-23 09:00:03.200000,4,1.0,-118.0,-1235.0,54.0
257,2016-05-23 09:00:03.212500,4,10.0,-115.0,-1252.0,64.0
258,2016-05-23 09:00:03.225000,4,65533.0,-92.0,-1246.0,68.0
259,2016-05-23 09:00:03.237500,4,0.0,-85.0,-1226.0,37.0
260,2016-05-23 09:00:03.250000,4,12.0,-86.0,-1216.0,17.0
261,2016-05-23 09:00:03.262500,4,65514.0,-97.0,-1223.0,16.0
262,2016-05-23 09:00:03.275000,4,65506.0,-107.0,-1237.0,31.0
263,2016-05-23 09:00:03.287500,4,36.0,-90.0,-1251.0,48.0
264,2016-05-23 09:00:03.300000,4,65501.0,-48.0,-1290.0,95.0
265,2016-05-23 09:00:03.312500,4,65530.0,-19.0,-1343.0,141.0
266,2016-05-23 09:00:03.325000,4,65505.0,-17.0,-1379.0,194.0
267,2016-05-23 09:00:03.337500,4,65514.0,31.0,-1408.0,259.0
268,2016-05-23 09:00:03.350000,4,65481.0,159.0,-1460.0,314.0
269,2016-05-23 09:00:03.362500,4,15.0,269.0,-1473.0,358.0
270,2016-05-23 09:00:03.375000,4,65525.0,306.0,-1456.0,381.0
271,2016-05-23 09:00:03.387500,4,65475.0,315.0,-1454.0,408.0
272,2016-05-23 09:00:03.400000,4,65519.0,437.0,-1449.0,404.0
273,2016-05-23 09:00:03.412500,4,65477.0,598.0,-1518.0,428.0
274,2016-05-23 09:00:03.425000,4,65514.0,693.0,-1561.0,490.0
275,2016-05-23 09:00:03.437500,4,65501.0,694.0,-1601.0,501.0
276,2016-05-23 09:00:03.450000,4,65457.0,607.0,-1551.0,427.0
277,2016-05-23 09:00:03.462500,4,65397.0,478.0,-1529.0,323.0
278,2016-05-23 09:00:03.475000,4,77.0,443.0,-1441.0,238.0
279,2016-05-23 09:00:03.487500,4,65437.0,334.0,-1410.0,134.0
280,2016-05-23 09:00:03.500000,4,18.0,279.0,-1417.0,62.0
281,2016-05-23 09:00:03.512500,4,65429.0,172.0,-1487.0,32.0
282,2016-05-23 09:00:03.525000,4,77.0,96.0,-1563.0,33.0
283,2016-05-23 09:00:03.537500,4,65348.0,-508.0,-1452.0,-262.0
284,2016-05-23 09:00:03.550000,4,59.0,-438.0,-1535.0,-208.0
285,2016-05-23 09:00:03.562500,4,65509.0,-295.0,-1696.0,-56.0
286,2016-05-23 09:00:03.575000,4,65414.0,-194.0,-1775.0,9.0
287,2016-05-23 09:00:03.587500,4,45.0,-128.0,-1729.0,28.0
288,2016-05-23 09:00:03.600000,4,65404.0,-40.0,-1630.0,-7.0
289,2016-05-23 09:00:03.612500,4,65406.0,634.0,-1305.0,-103.0
290,2016-05-23 09:00:03.625000,4,43.0,523.0,-1371.0,-101.0
291,2016-05-23 09:00:03.637500,4,65401.0,597.0,-1191.0,-175.0
292,2016-05-23 09:00:03.650000,4,63.0,-505.0,-909.0,-345.0
293,2016-05-23 09:00:03.662500,4,65482.0,-767.0,-769.0,-17.0
294,2016-05-23 09:00:03.675000,4,65481.0,-596.0,-861.0,130.0
295,2016-05-23 09:00:03.687500,4,65493.0,-363.0,-870.0,183.0
296,2016-05-23 09:00:03.700000,4,49.0,-362.0,-883.0,192.0
297,2016-05-23 09:00:03.712500,4,65331.0,-362.0,-894.0,163.0
298,2016-05-23 09:00:03.725000,4,44.0,-299.0,-899.0,113.0
299,2016-05-23 09:00:03.737500,4,65391.0,-252.0,-858.0,157.0
300,2016-05-23 09:00:03.750000,4,53.0,-28.0,-766.0,97.0
301,2016-05-23 09:00:03.762500,4,92.0,144.0,-749.0,-11.0
302,2016-05-23 09:00:03.775000,4,25.0,247.0,-914.0,-51.0
303,2016-05-23 09:00:03.787500,4,65384.0,447.0,-1031.0,-55.0
304,2016-05-23 09:00:03.800000,4,65529.0,544.0,-1072.0,-55.0
305,2016-05-23 09:00:03.812500,4,65468.0,583.0,-1089.0,-38.0
306,2016-05-23 09:00:03.825000,4,65461.0,549.0,-1009.0,-41.0
307,2016-05-23 09:00:03.837500,4,65534.0,549.0,-895.0,-28.0
308,2016-05-23 09:00:03.850000,4,65477.0,775.0,-890.0,6.0
309,2016-05-23 09:00:03.862500,4,65462.0,1235.0,-923.0,58.0
310,2016-05-23 09:00:03.875000,4,65507.0,1575.0,-1166.0,92.0
311,2016-05-23 09:00:03.887500,4,65451.0,1666.0,-1668.0,247.0
312,2016-05-23 09:00:03.900000,4,65489.0,1826.0,-1782.0,380.0
313,2016-05-23 09:00:03.912500,4,65401.0,-393.0,-1158.0,-46.0
314,2016-05-23 09:00:03.925000,4,65476.0,-261.0,-1108.0,-89.0
315,2016-05-23 09:00:03.937500,4,65534.0,-223.0,-1037.0,-186.0
316,2016-05-23 09:00:03.950000,4,65517.0,-261.0,-1102.0,-209.0
317,2016-05-23 09:00:03.962500,4,65416.0,-223.0,-1236.0,-204.0
318,2016-05-23 09:00:03.975000,4,65510.0,-146.0,-1342.0,-255.0
319,2016-05-23 09:00:03.987500,4,65533.0,-128.0,-1293.0,-271.0
320,2016-05-23 09:00:04,4,65463.0,-78.0,-1349.0,-400.0
321,2016-05-23 09:00:04.012500,4,12.0,192.0,-1839.0,-217.0
322,2016-05-23 09:00:04.025000,4,65449.0,428.0,-1937.0,158.0
323,2016-05-23 09:00:04.037500,4,33.0,597.0,-1867.0,291.0
324,2016-05-23 09:00:04.050000,4,65516.0,519.0,-1591.0,254.0
325,2016-05-23 09:00:04.062500,4,65460.0,328.0,-1491.0,147.0
326,2016-05-23 09:00:04.075000,4,65510.0,210.0,-1523.0,41.0
327,2016-05-23 09:00:04.087500,4,65433.0,133.0,-1467.0,-44.0
328,2016-05-23 09:00:04.100000,4,65503.0,-59.0,-1400.0,-110.0
329,2016-05-23 09:00:04.112500,4,65506.0,-111.0,-1412.0,-157.0
330,2016-05-23 09:00:04.125000,4,65494.0,-193.0,-1490.0,-405.0
331,2016-05-23 09:00:04.137500,4,65451.0,37.0,-1720.0,301.0
332,2016-05-23 09:00:04.150000,4,65513.0,118.0,-1905.0,754.0
333,2016-05-23 09:00:04.162500,4,65442.0,-68.0,-1766.0,772.0
334,2016-05-23 09:00:04.175000,4,65471.0,-268.0,-1581.0,521.0
335,2016-05-23 09:00:04.187500,4,65525.0,-251.0,-1566.0,307.0
336,2016-05-23 09:00:04.200000,4,65489.0,-201.0,-1777.0,204.0
337,2016-05-23 09:00:04.212500,4,65457.0,9183.0,-28464.0,1118.0
338,2016-05-23 09:00:04.225000,4,65491.0,274.0,-2059.0,617.0
339,2016-05-23 09:00:04.237500,4,65419.0,345.0,-2016.0,606.0
340,2016-05-23 09:00:04.250000,4,11.0,374.0,-1935.0,558.0
341,2016-05-23 09:00:04.262500,4,47.0,372.0,-1848.0,496.0
342,2016-05-23 09:00:04.275000,4,65509.0,386.0,-1759.0,450.0
343,2016-05-23 09:00:04.287500,4,65521.0,322.0,-1640.0,389.0
344,2016-05-23 09:00:04.300000,4,65480.0,109.0,-1452.0,265.0
345,2016-05-23 09:00:04.312500,4,65438.0,-141.0,-1330.0,179.0
346,2016-05-23 09:00:04.325000,4,65423.0,-177.0,-1285.0,181.0
347,2016-05-23 09:00:04.337500,4,65362.0,-56.0,-1339.0,284.0
348,2016-05-23 09:00:04.350000,4,65528.0,138.0,-1396.0,372.0
349,2016-05-23 09:00:04.362500,4,65448.0,274.0,-1370.0,283.0
350,2016-05-23 09:00:04.375000,4,65458.0,279.0,-1319.0,109.0
351,2016-05-23 09:00:04.387500,4,65437.0,224.0,-1328.0,-28.0
352,2016-05-23 09:00:04.400000,4,65458.0,255.0,-1281.0,-110.0
353,2016-05-23 09:00:04.412500,4,65530.0,106.0,-1021.0,-149.0
354,2016-05-23 09:00:04.425000,4,65502.0,260.0,-667.0,-308.0
355,2016-05-23 09:00:04.437500,4,65442.0,244.0,-697.0,-380.0
356,2016-05-23 09:00:04.450000,4,65489.0,219.0,-885.0,-338.0
357,2016-05-23 09:00:04.462500,4,65515.0,138.0,-1023.0,-341.0
358,2016-05-23 09:00:04.475000,4,65492.0,-260.0,-961.0,28370.0
359,2016-05-23 09:00:04.487500,4,65514.0,-59.0,-1279.0,-88.0
360,2016-05-23 09:00:04.500000,4,65492.0,39.0,-1218.0,-23.0
361,2016-05-23 09:00:04.512500,4,65511.0,130.0,-1254.0,75.0
362,2016-05-23 09:00:04.525000,4,65466.0,238.0,-1352.0,193.0
363,2016-05-23 09:00:04.537500,4,65429.0,331.0,-1421.0,256.0
364,2016-05-23 09:00:04.550000,4,65461.0,296.0,-1408.0,242.0
365,2016-05-23 09:00:04.562500,4,65492.0,231.0,-1442.0,251.0
366,2016-05-23 09:00:04.575000,4,65498.0,186.0,-1488.0,349.0
367,2016-05-23 09:00:04.587500,4,65493.0,201.0,-1405.0,375.0
368,2016-05-23 09:00:04.600000,4,65469.0,245.0,-1268.0,377.0
369,2016-05-23 09:00:04.612500,4,136.0,113.0,-1367.0,462.0
370,2016-05-23 09:00:04.625000,4,205.0,276.0,-1202.0,459.0
371,2016-05-23 09:00:04.637500,4,65372.0,274.0,-1142.0,359.0
372,2016-05-23 09:00:04.650000,4,65403.0,-1702.0,-1971.0,334.0
373,2016-05-23 09:00:04.662500,4,9.0,-2165.0,-2498.0,1074.0
374,2016-05-23 09:00:04.675000,4,65497.0,-3660.0,-1717.0,307.0
375,2016-05-23 09:00:04.687500,4,65527.0,-4676.0,-1526.0,-766.0
376,2016-05-23 09:00:04.700000,4,65509.0,-3177.0,-1599.0,-952.0
377,2016-05-23 09:00:04.712500,4,65504.0,-1729.0,-1817.0,-835.0
378,2016-05-23 09:00:04.725000,4,65465.0,-24880.0,-10421.0,1036.0
379,2016-05-23 09:00:04.737500,4,65480.0,2159.0,-1012.0,665.0
380,2016-05-23 09:00:04.750000,4,65514.0,1800.0,-992.0,591.0
381,2016-05-23 09:00:04.762500,4,4.0,1393.0,-1038.0,481.0
382,2016-05-23 09:00:04.775000,4,43.0,951.0,-1136.0,396.0
383,2016-05-23 09:00:04.787500,4,19.0,518.0,-1132.0,250.0
384,2016-05-23 09:00:04.800000,4,15.0,263.0,-967.0,108.0
385,2016-05-23 09:00:04.812500,4,65528.0,234.0,-833.0,21.0
386,2016-05-23 09:00:04.825000,4,65510.0,373.0,-827.0,30.0
387,2016-05-23 09:00:04.837500,4,65486.0,584.0,-793.0,15.0
388,2016-05-23 09:00:04.850000,4,12.0,767.0,-729.0,-13.0
389,2016-05-23 09:00:04.862500,4,65455.0,864.0,-633.0,-61.0
390,2016-05-23 09:00:04.875000,4,65527.0,889.0,-569.0,-153.0
391,2016-05-23 09:00:04.887500,4,65479.0,796.0,-667.0,-244.0
392,2016-05-23 09:00:04.900000,4,65504.0,607.0,-833.0,-225.0
393,2016-05-23 09:00:04.912500,4,65496.0,412.0,-886.0,-264.0
394,2016-05-23 09:00:04.925000,4,65479.0,305.0,-882.0,-314.0
395,2016-05-23 09:00:04.937500,4,65442.0,203.0,-945.0,-345.0
396,2016-05-23 09:00:04.950000,4,65510.0,-4787.0,25933.0,14187.0
397,2016-05-23 09:00:04.962500,4,65464.0,-359.0,-242.0,-961.0
398,2016-05-23 09:00:04.975000,4,65508.0,-353.0,-294.0,-1043.0
399,2016-05-23 09:00:04.987500,4,65524.0,-402.0,-404.0,-1072.0
400,2016-05-23 09:00:05,4,65430.0,-486.0,-503.0,-1085.0
401,2016-05-23 09:00:05.012500,4,65448.0,-606.0,-563.0,-1092.0
402,2016-05-23 09:00:05.025000,4,65466.0,-728.0,-550.0,-1127.0
403,2016-05-23 09:00:05.037500,4,65509.0,-917.0,-519.0,-1123.0
404,2016-05-23 09:00:05.050000,4,65521.0,-944.0,-502.0,-1067.0
405,2016-05-23 09:00:05.062500,4,52.0,-785.0,-510.0,-1003.0
406,2016-05-23 09:00:05.075000,4,28.0,-549.0,-584.0,-905.0
407,2016-05-23 09:00:05.087500,4,22.0,-323.0,-808.0,-692.0
408,2016-05-23 09:00:05.100000,4,65415.0,-161.0,-967.0,-510.0
409,2016-05-23 09:00:05.112500,4,65306.0,-82.0,-1004.0,-348.0
410,2016-05-23 09:00:05.125000,4,65368.0,-69.0,-1026.0,-224.0
411,2016-05-23 09:00:05.137500,4,149.0,2.0,-996.0,-101.0
412,2016-05-23 09:00:05.150000,4,224.0,166.0,-976.0,10.0
413,2016-05-23 09:00:05.162500,4,191.0,587.0,-1625.0,578.0
414,2016-05-23 09:00:05.175000,4,65529.0,397.0,-1319.0,533.0
415,2016-05-23 09:00:05.187500,4,65501.0,277.0,-1008.0,413.0
416,2016-05-23 09:00:05.200000,4,65530.0,253.0,-721.0,296.0
417,2016-05-23 09:00:05.212500,4,42.0,259.0,-518.0,133.0
418,2016-05-23 09:00:05.225000,4,228.0,106.0,-288.0,-90.0
419,2016-05-23 09:00:05.237500,4,65455.0,-44.0,-64.0,-257.0
420,2016-05-23 09:00:05.250000,4,65465.0,89.0,-83.0,-321.0
421,2016-05-23 09:00:05.262500,4,15.0,305.0,-402.0,-168.0
422,2016-05-23 09:00:05.275000,4,92.0,455.0,-800.0,38.0
423,2016-05-23 09:00:05.287500,4,65506.0,462.0,-1212.0,222.0
424,2016-05-23 09:00:05.300000,4,114.0,205.0,-1541.0,377.0
425,2016-05-23 09:00:05.312500,4,40.0,-83.0,-1756.0,470.0
426,2016-05-23 09:00:05.325000,4,54.0,-246.0,-1851.0,545.0
427,2016-05-23 09:00:05.337500,4,123.0,-232.0,-1878.0,545.0
428,2016-05-23 09:00:05.350000,4,65514.0,-70.0,-1040.0,170.0
429,2016-05-23 09:00:05.362500,4,65481.0,-293.0,-1098.0,224.0
430,2016-05-23 09:00:05.375000,4,10.0,-664.0,-1101.0,251.0
431,2016-05-23 09:00:05.387500,4,65480.0,-704.0,-929.0,102.0
432,2016-05-23 09:00:05.400000,4,65475.0,-720.0,-727.0,-84.0
433,2016-05-23 09:00:05.412500,4,40.0,-731.0,-677.0,-173.0
434,2016-05-23 09:00:05.425000,4,86.0,-759.0,-823.0,-125.0
435,2016-05-23 09:00:05.437500,4,65525.0,-883.0,-1028.0,-6.0
436,2016-05-23 09:00:05.450000,4,46.0,-808.0,-1091.0,95.0
437,2016-05-23 09:00:05.462500,4,65493.0,-508.0,-1091.0,160.0
438,2016-05-23 09:00:05.475000,4,15.0,-17.0,-1103.0,242.0
439,2016-05-23 09:00:05.487500,4,65513.0,584.0,-1462.0,163.0
440,2016-05-23 09:00:05.500000,4,65506.0,223.0,-1567.0,543.0
441,2016-05-23 09:00:05.512500,4,65384.0,29923.0,2706.0,-11819.0
442,2016-05-23 09:00:05.525000,4,9.0,517.0,21.0,2503.0
443,2016-05-23 09:00:05.537500,4,92.0,363.0,-57.0,2497.0
444,2016-05-23 09:00:05.550000,4,161.0,119.0,23.0,2651.0
445,2016-05-23 09:00:05.562500,4,65190.0,-214.0,347.0,2759.0
446,2016-05-23 09:00:05.575000,4,65520.0,-220.0,606.0,2951.0
447,2016-05-23 09:00:05.587500,4,65393.0,196.0,484.0,2483.0
448,2016-05-23 09:00:05.600000,4,65394.0,786.0,-59.0,1493.0
449,2016-05-23 09:00:05.612500,4,65523.0,659.0,-736.0,650.0
450,2016-05-23 09:00:05.625000,4,65298.0,646.0,-1135.0,721.0
451,2016-05-23 09:00:05.637500,4,116.0,836.0,-1252.0,903.0
452,2016-05-23 09:00:05.650000,4,162.0,1068.0,-1190.0,958.0
453,2016-05-23 09:00:05.662500,4,65332.0,1153.0,-1127.0,938.0
454,2016-05-23 09:00:05.675000,4,46.0,-18226.0,15404.0,31961.0
455,2016-05-23 09:00:05.687500,4,65394.0,-380.0,-1277.0,-1310.0
456,2016-05-23 09:00:05.700000,4,65434.0,-332.0,-1178.0,-1285.0
457,2016-05-23 09:00:05.712500,4,65382.0,-206.0,-1088.0,-1332.0
458,2016-05-23 09:00:05.725000,4,65384.0,14.0,-1133.0,-1289.0
459,2016-05-23 09:00:05.737500,4,65379.0,253.0,-1167.0,-1160.0
460,2016-05-23 09:00:05.750000,4,65485.0,414.0,-1145.0,-1132.0
461,2016-05-23 09:00:05.762500,4,83.0,577.0,-1336.0,-1379.0
462,2016-05-23 09:00:05.775000,4,65123.0,516.0,-1256.0,-1511.0
463,2016-05-23 09:00:05.787500,4,518.0,294.0,-1023.0,-1587.0
464,2016-05-23 09:00:05.800000,4,64931.0,-41.0,-826.0,-1773.0
465,2016-05-23 09:00:05.812500,4,384.0,-559.0,-623.0,-1848.0
466,2016-05-23 09:00:05.825000,4,65188.0,1018.0,-5579.0,7135.0
467,2016-05-23 09:00:05.837500,4,352.0,-1192.0,-1018.0,-59.0
468,2016-05-23 09:00:05.850000,4,325.0,-1573.0,-789.0,294.0
469,2016-05-23 09:00:05.862500,4,65185.0,-1798.0,-592.0,631.0
470,2016-05-23 09:00:05.875000,4,219.0,-1685.0,-490.0,1013.0
471,2016-05-23 09:00:05.887500,4,65367.0,-1315.0,-445.0,1283.0
472,2016-05-23 09:00:05.900000,4,94.0,-1016.0,-528.0,1294.0
473,2016-05-23 09:00:05.912500,4,65451.0,-879.0,-674.0,1125.0
474,2016-05-23 09:00:05.925000,4,236.0,-933.0,-846.0,837.0
475,2016-05-23 09:00:05.937500,4,141.0,-1210.0,-1098.0,566.0
476,2016-05-23 09:00:05.950000,4,65509.0,-1542.0,-1244.0,330.0
477,2016-05-23 09:00:05.962500,4,10.0,-1868.0,-1311.0,199.0
478,2016-05-23 09:00:05.975000,4,7.0,-2164.0,-1352.0,154.0
479,2016-05-23 09:00:05.987500,4,65489.0,-454.0,-2396.0,85.0
480,2016-05-23 09:00:06,4,65431.0,-132.0,-2403.0,-180.0
481,2016-05-23 09:00:06.012500,4,65489.0,203.0,-2396.0,-539.0
482,2016-05-23 09:00:06.025000,4,65509.0,537.0,-2430.0,-905.0
483,2016-05-23 09:00:06.037500,4,48.0,722.0,-2293.0,-1209.0
484,2016-05-23 09:00:06.050000,4,65527.0,733.0,-2252.0,-1485.0
485,2016-05-23 09:00:06.062500,4,65468.0,565.0,-2364.0,-1956.0
486,2016-05-23 09:00:06.075000,4,58.0,215.0,-2618.0,-2636.0
487,2016-05-23 09:00:06.087500,4,65455.0,-232.0,-3156.0,-3440.0
488,2016-05-23 09:00:06.100000,4,136.0,-598.0,-3411.0,-3970.0
489,2016-05-23 09:00:06.112500,4,65360.0,-869.0,-3416.0,-4330.0
490,2016-05-23 09:00:06.125000,4,173.0,-654.0,608.0,-1502.0
491,2016-05-23 09:00:06.137500,4,65386.0,-410.0,628.0,-1134.0
492,2016-05-23 09:00:06.150000,4,69.0,-356.0,672.0,-760.0
493,2016-05-23 09:00:06.162500,4,65367.0,-439.0,790.0,-395.0
494,2016-05-23 09:00:06.175000,4,65421.0,-637.0,967.0,-51.0
495,2016-05-23 09:00:06.187500,4,65454.0,-940.0,1116.0,306.0
496,2016-05-23 09:00:06.200000,4,89.0,-1339.0,1243.0,535.0
497,2016-05-23 09:00:06.212500,4,65463.0,-1595.0,1337.0,776.0
498,2016-05-23 09:00:06.225000,4,83.0,-1468.0,1279.0,1080.0
499,2016-05-23 09:00:06.237500,4,38.0,-990.0,1003.0,1421.0
500,2016-05-23 09:00:06.250000,4,69.0,-274.0,572.0,1672.0
501,2016-05-23 09:00:06.262500,4,37.0,-541.0,213.0,2510.0
502,2016-05-23 09:00:06.275000,4,141.0,-837.0,275.0,2787.0
503,2016-05-23 09:00:06.287500,4,209.0,-1304.0,379.0,3034.0
504,2016-05-23 09:00:06.300000,4,313.0,-1755.0,471.0,3097.0
505,2016-05-23 09:00:06.312500,4,351.0,-1974.0,387.0,2806.0
506,2016-05-23 09:00:06.325000,4,496.0,-1934.0,169.0,2399.0
507,2016-05-23 09:00:06.337500,4,558.0,-1637.0,-155.0,1985.0
508,2016-05-23 09:00:06.350000,4,433.0,-1262.0,-596.0,1505.0
509,2016-05-23 09:00:06.362500,4,623.0,-960.0,-884.0,1214.0
510,2016-05-23 09:00:06.375000,4,951.0,-738.0,-1066.0,990.0
511,2016-05-23 09:00:06.387500,4,1661.0,-951.0,-956.0,1365.0
512,2016-05-23 09:00:06.400000,4,2760.0,-1283.0,-961.0,1295.0
513,2016-05-23 09:00:06.412500,4,3181.0,-1689.0,-935.0,1021.0
514,2016-05-23 09:00:06.425000,4,3414.0,-2037.0,-747.0,681.0
515,2016-05-23 09:00:06.437500,4,3504.0,-2551.0,-487.0,633.0
516,2016-05-23 09:00:06.450000,4,3431.0,-2536.0,-368.0,421.0
517,2016-05-23 09:00:06.462500,4,3226.0,-2369.0,-363.0,291.0
518,2016-05-23 09:00:06.475000,4,3479.0,-2139.0,-358.0,334.0
519,2016-05-23 09:00:06.487500,4,4455.0,-1918.0,-405.0,360.0
520,2016-05-23 09:00:06.500000,4,5993.0,-1771.0,-421.0,435.0
521,2016-05-23 09:00:06.512500,4,8366.0,-964.0,-93.0,103.0
522,2016-05-23 09:00:06.525000,4,12068.0,-1053.0,-46.0,80.0
523,2016-05-23 09:00:06.537500,4,14605.0,-1099.0,-79.0,67.0
524,2016-05-23 09:00:06.550000,4,50591.0,-1170.0,-79.0,-15.0
525,2016-05-23 09:00:06.562500,4,53879.0,-1378.0,-394.0,-96.0
526,2016-05-23 09:00:06.575000,4,57395.0,-1335.0,-335.0,-81.0
527,2016-05-23 09:00:06.587500,4,61042.0,-1194.0,-309.0,42.0
528,2016-05-23 09:00:06.600000,4,64557.0,-1102.0,-329.0,159.0
529,2016-05-23 09:00:06.612500,4,2253.0,-1062.0,-298.0,211.0
530,2016-05-23 09:00:06.625000,4,5071.0,-1140.0,-219.0,150.0
531,2016-05-23 09:00:06.637500,4,7831.0,-1295.0,-74.0,1.0
532,2016-05-23 09:00:06.650000,4,11227.0,-1270.0,20.0,-59.0
533,2016-05-23 09:00:06.662500,4,14859.0,-1241.0,35.0,42.0
534,2016-05-23 09:00:06.675000,4,18186.0,-1120.0,-30.0,142.0
535,2016-05-23 09:00:06.687500,4,20988.0,-1023.0,-138.0,229.0
536,2016-05-23 09:00:06.700000,4,23290.0,-1032.0,-272.0,351.0
537,2016-05-23 09:00:06.712500,4,24820.0,-1127.0,-345.0,437.0
538,2016-05-23 09:00:06.725000,4,25646.0,-1440.0,-492.0,-176.0
539,2016-05-23 09:00:06.737500,4,26584.0,-1421.0,-364.0,-311.0
540,2016-05-23 09:00:06.750000,4,26915.0,-1426.0,-261.0,-114.0
541,2016-05-23 09:00:06.762500,4,26886.0,-1469.0,-216.0,11.0
542,2016-05-23 09:00:06.775000,4,26760.0,-1393.0,-153.0,66.0
543,2016-05-23 09:00:06.787500,4,26492.0,-1278.0,-202.0,-13.0
544,2016-05-23 09:00:06.800000,4,26282.0,-1209.0,-252.0,-5.0
545,2016-05-23 09:00:06.812500,4,26271.0,-1292.0,-20.0,134.0
546,2016-05-23 09:00:06.825000,4,26413.0,-1190.0,-25.0,85.0
547,2016-05-23 09:00:06.837500,4,26475.0,-1287.0,-91.0,-237.0
548,2016-05-23 09:00:06.850000,4,26285.0,-1183.0,-63.0,-266.0
549,2016-05-23 09:00:06.862500,4,25947.0,-1178.0,21.0,-546.0
550,2016-05-23 09:00:06.875000,4,25481.0,-1210.0,274.0,-695.0
551,2016-05-23 09:00:06.887500,4,24735.0,-1155.0,361.0,-627.0
552,2016-05-23 09:00:06.900000,4,23918.0,-1108.0,433.0,-515.0
553,2016-05-23 09:00:06.912500,4,23939.0,-1299.0,616.0,-384.0
554,2016-05-23 09:00:06.925000,4,23479.0,-1563.0,593.0,-274.0
555,2016-05-23 09:00:06.937500,4,23346.0,-976.0,374.0,-245.0
556,2016-05-23 09:00:06.950000,4,23266.0,-987.0,264.0,-400.0
557,2016-05-23 09:00:06.962500,4,23167.0,-1024.0,374.0,-287.0
558,2016-05-23 09:00:06.975000,4,23097.0,-996.0,352.0,-133.0
559,2016-05-23 09:00:06.987500,4,22973.0,-964.0,265.0,5.0
560,2016-05-23 09:00:07,4,22697.0,-1068.0,247.0,-5.0
561,2016-05-23 09:00:07.012500,4,21782.0,-1626.0,331.0,-742.0
562,2016-05-23 09:00:07.025000,4,19498.0,-1614.0,219.0,-444.0
563,2016-05-23 09:00:07.037500,4,16450.0,-940.0,12.0,157.0
564,2016-05-23 09:00:07.050000,4,12595.0,-210.0,-1064.0,-711.0
565,2016-05-23 09:00:07.062500,4,10088.0,-912.0,407.0,-39.0
566,2016-05-23 09:00:07.075000,4,8695.0,-1177.0,238.0,-202.0
567,2016-05-23 09:00:07.087500,4,7358.0,-1164.0,251.0,-249.0
568,2016-05-23 09:00:07.100000,4,5575.0,-1302.0,475.0,-321.0
569,2016-05-23 09:00:07.112500,4,3857.0,-1265.0,572.0,-240.0
570,2016-05-23 09:00:07.125000,4,2291.0,-1223.0,588.0,-254.0
571,2016-05-23 09:00:07.137500,4,891.0,-1154.0,492.0,-370.0
572,2016-05-23 09:00:07.150000,4,65130.0,-1046.0,433.0,-447.0
573,2016-05-23 09:00:07.162500,4,64052.0,-1012.0,461.0,-422.0
574,2016-05-23 09:00:07.175000,4,63186.0,-973.0,432.0,-343.0
575,2016-05-23 09:00:07.187500,4,62404.0,-1011.0,452.0,-302.0
576,2016-05-23 09:00:07.200000,4,61394.0,-1083.0,530.0,-248.0
577,2016-05-23 09:00:07.212500,4,59839.0,-1155.0,573.0,-124.0
578,2016-05-23 09:00:07.225000,4,58543.0,-1165.0,591.0,35.0
579,2016-05-23 09:00:07.237500,4,57439.0,-1139.0,615.0,216.0
580,2016-05-23 09:00:07.250000,4,56622.0,-1076.0,613.0,481.0
581,2016-05-23 09:00:07.262500,4,55853.0,-1011.0,577.0,729.0
582,2016-05-23 09:00:07.275000,4,55254.0,-966.0,558.0,860.0
583,2016-05-23 09:00:07.287500,4,54803.0,-976.0,595.0,860.0
584,2016-05-23 09:00:07.300000,4,54474.0,-989.0,653.0,804.0
585,2016-05-23 09:00:07.312500,4,54298.0,-993.0,718.0,717.0
586,2016-05-23 09:00:07.325000,4,54348.0,-989.0,787.0,630.0
587,2016-05-23 09:00:07.337500,4,54495.0,-985.0,856.0,530.0
588,2016-05-23 09:00:07.350000,4,54657.0,-966.0,893.0,440.0
589,2016-05-23 09:00:07.362500,4,54754.0,-963.0,898.0,353.0
590,2016-05-23 09:00:07.375000,4,54937.0,-950.0,894.0,271.0
591,2016-05-23 09:00:07.387500,4,55031.0,-911.0,869.0,199.0
592,2016-05-23 09:00:07.400000,4,55089.0,-866.0,832.0,141.0
593,2016-05-23 09:00:07.412500,4,55138.0,-835.0,764.0,121.0
594,2016-05-23 09:00:07.425000,4,55075.0,-819.0,711.0,72.0
595,2016-05-23 09:00:07.437500,4,55169.0,-812.0,656.0,57.0
596,2016-05-23 09:00:07.450000,4,55325.0,-838.0,619.0,64.0
597,2016-05-23 09:00:07.462500,4,55558.0,-893.0,630.0,96.0
598,2016-05-23 09:00:07.475000,4,55857.0,-998.0,643.0,144.0
599,2016-05-23 09:00:07.487500,4,56420.0,-1019.0,648.0,197.0
600,2016-05-23 09:00:07.500000,4,56911.0,-983.0,678.0,185.0
601,2016-05-23 09:00:07.512500,4,57460.0,-972.0,735.0,158.0
602,2016-05-23 09:00:07.525000,4,57739.0,-982.0,776.0,135.0
603,2016-05-23 09:00:07.537500,4,57905.0,-971.0,772.0,114.0
604,2016-05-23 09:00:07.550000,4,58043.0,-936.0,755.0,94.0
605,2016-05-23 09:00:07.562500,4,58153.0,-899.0,733.0,93.0
606,2016-05-23 09:00:07.575000,4,58194.0,-927.0,734.0,92.0
607,2016-05-23 09:00:07.587500,4,58223.0,-961.0,737.0,93.0
608,2016-05-23 09:00:07.600000,4,58226.0,-999.0,726.0,75.0
609,2016-05-23 09:00:07.612500,4,58252.0,-1024.0,711.0,44.0
610,2016-05-23 09:00:07.625000,4,58244.0,-1021.0,699.0,14.0
611,2016-05-23 09:00:07.637500,4,58226.0,-1040.0,684.0,17.0
612,2016-05-23 09:00:07.650000,4,58253.0,-1052.0,660.0,14.0
613,2016-05-23 09:00:07.662500,4,58239.0,-1054.0,661.0,7.0
614,2016-05-23 09:00:07.675000,4,58282.0,-1074.0,684.0,4.0
615,2016-05-23 09:00:07.687500,4,58325.0,-1097.0,706.0,24.0
616,2016-05-23 09:00:07.700000,4,58354.0,-1107.0,701.0,48.0
617,2016-05-23 09:00:07.712500,4,58473.0,-1103.0,683.0,88.0
618,2016-05-23 09:00:07.725000,4,58558.0,-1110.0,676.0,84.0
619,2016-05-23 09:00:07.737500,4,58629.0,-1135.0,688.0,76.0
620,2016-05-23 09:00:07.750000,4,58701.0,-1159.0,705.0,52.0
621,2016-05-23 09:00:07.762500,4,58728.0,-1152.0,696.0,41.0
622,2016-05-23 09:00:07.775000,4,58781.0,-1144.0,690.0,24.0
623,2016-05-23 09:00:07.787500,4,58863.0,-1129.0,699.0,19.0
624,2016-05-23 09:00:07.800000,4,58933.0,-1110.0,695.0,12.0
625,2016-05-23 09:00:07.812500,4,59052.0,-1090.0,666.0,20.0
626,2016-05-23 09:00:07.825000,4,59153.0,-1123.0,681.0,27.0
627,2016-05-23 09:00:07.837500,4,59351.0,-1138.0,709.0,15.0
628,2016-05-23 09:00:07.850000,4,59441.0,-1137.0,725.0,-5.0
629,2016-05-23 09:00:07.862500,4,59495.0,-1136.0,740.0,-20.0
630,2016-05-23 09:00:07.875000,4,59485.0,-1124.0,732.0,-21.0
631,2016-05-23 09:00:07.887500,4,59555.0,-1099.0,724.0,-26.0
632,2016-05-23 09:00:07.900000,4,59641.0,-1102.0,718.0,-31.0
633,2016-05-23 09:00:07.912500,4,59686.0,-1114.0,723.0,-60.0
634,2016-05-23 09:00:07.925000,4,59936.0,-1131.0,739.0,-75.0
635,2016-05-23 09:00:07.937500,4,60414.0,-1121.0,731.0,-84.0
636,2016-05-23 09:00:07.950000,4,60720.0,-1108.0,741.0,-67.0
637,2016-05-23 09:00:07.962500,4,60879.0,-1086.0,747.0,-37.0
638,2016-05-23 09:00:07.975000,4,61008.0,-1071.0,751.0,-4.0
639,2016-05-23 09:00:07.987500,4,61125.0,-1068.0,769.0,28.0
640,2016-05-23 09:00:08,4,61271.0,-1057.0,785.0,56.0
641,2016-05-23 09:00:08.012500,4,61548.0,-1036.0,788.0,66.0
642,2016-05-23 09:00:08.025000,4,61828.0,-1013.0,781.0,68.0
643,2016-05-23 09:00:08.037500,4,62076.0,-1031.0,790.0,56.0
644,2016-05-23 09:00:08.050000,4,62314.0,-1052.0,815.0,37.0
645,2016-05-23 09:00:08.062500,4,62600.0,-1078.0,841.0,31.0
646,2016-05-23 09:00:08.075000,4,62598.0,-1090.0,845.0,39.0
647,2016-05-23 09:00:08.087500,4,62740.0,-1082.0,846.0,52.0
648,2016-05-23 09:00:08.100000,4,62808.0,-1086.0,855.0,52.0
649,2016-05-23 09:00:08.112500,4,62842.0,-1073.0,860.0,57.0
650,2016-05-23 09:00:08.125000,4,62910.0,-1054.0,851.0,53.0
651,2016-05-23 09:00:08.137500,4,62876.0,-1036.0,833.0,48.0
652,2016-05-23 09:00:08.150000,4,62920.0,-1045.0,835.0,45.0
653,2016-05-23 09:00:08.162500,4,63094.0,-1047.0,823.0,20.0
654,2016-05-23 09:00:08.175000,4,63259.0,-1069.0,826.0,1.0
655,2016-05-23 09:00:08.187500,4,63401.0,-1087.0,839.0,-24.0
656,2016-05-23 09:00:08.200000,4,63411.0,-1091.0,848.0,-41.0
657,2016-05-23 09:00:08.212500,4,63561.0,-1088.0,846.0,-49.0
658,2016-05-23 09:00:08.225000,4,63622.0,-1089.0,850.0,-40.0
659,2016-05-23 09:00:08.237500,4,63683.0,-1089.0,859.0,-31.0
660,2016-05-23 09:00:08.250000,4,63768.0,-1082.0,867.0,-8.0
661,2016-05-23 09:00:08.262500,4,63807.0,-1090.0,880.0,-1.0
662,2016-05-23 09:00:08.275000,4,64089.0,-1094.0,881.0,2.0
663,2016-05-23 09:00:08.287500,4,64149.0,-1089.0,883.0,11.0
664,2016-05-23 09:00:08.300000,4,64249.0,-1069.0,862.0,11.0
665,2016-05-23 09:00:08.312500,4,64263.0,-1071.0,839.0,12.0
666,2016-05-23 09:00:08.325000,4,64271.0,-1080.0,841.0,-1.0
667,2016-05-23 09:00:08.337500,4,64306.0,-1093.0,845.0,-17.0
668,2016-05-23 09:00:08.350000,4,64292.0,-1088.0,858.0,-36.0
669,2016-05-23 09:00:08.362500,4,64276.0,-1087.0,862.0,-52.0
670,2016-05-23 09:00:08.375000,4,64297.0,-1081.0,885.0,-53.0
671,2016-05-23 09:00:08.387500,4,64452.0,-1079.0,916.0,-54.0
672,2016-05-23 09:00:08.400000,4,64563.0,-1083.0,925.0,-44.0
673,2016-05-23 09:00:08.412500,4,64653.0,-1069.0,924.0,-42.0
674,2016-05-23 09:00:08.425000,4,64806.0,-1067.0,927.0,-47.0
675,2016-05-23 09:00:08.437500,4,64891.0,-1076.0,940.0,-42.0
676,2016-05-23 09:00:08.450000,4,65030.0,-1075.0,935.0,-29.0
677,2016-05-23 09:00:08.462500,4,65126.0,-1070.0,929.0,-23.0
678,2016-05-23 09:00:08.475000,4,65248.0,-1060.0,914.0,-20.0
679,2016-05-23 09:00:08.487500,4,65359.0,-1058.0,923.0,-7.0
680,2016-05-23 09:00:08.500000,4,65397.0,-1066.0,925.0,-8.0
681,2016-05-23 09:00:08.512500,4,65450.0,-1073.0,931.0,-11.0
682,2016-05-23 09:00:08.525000,4,65496.0,-1081.0,945.0,-7.0
683,2016-05-23 09:00:08.537500,4,28.0,-1089.0,956.0,-1.0
684,2016-05-23 09:00:08.550000,4,168.0,-1097.0,957.0,-3.0
685,2016-05-23 09:00:08.562500,4,347.0,-1094.0,964.0,-9.0
686,2016-05-23 09:00:08.575000,4,579.0,-1084.0,957.0,-11.0
687,2016-05-23 09:00:08.587500,4,740.0,-1077.0,944.0,-6.0
688,2016-05-23 09:00:08.600000,4,917.0,-1072.0,964.0,-5.0
689,2016-05-23 09:00:08.612500,4,1004.0,-1069.0,962.0,-7.0
690,2016-05-23 09:00:08.625000,4,1097.0,-1070.0,959.0,-7.0
691,2016-05-23 09:00:08.637500,4,1171.0,-1073.0,953.0,-11.0
692,2016-05-23 09:00:08.650000,4,1125.0,-1064.0,943.0,-13.0
693,2016-05-23 09:00:08.662500,4,1131.0,-1065.0,933.0,-13.0
694,2016-05-23 09:00:08.675000,4,1100.0,-1075.0,940.0,-21.0
695,2016-05-23 09:00:08.687500,4,1081.0,-1085.0,953.0,-22.0
696,2016-05-23 09:00:08.700000,4,1216.0,-1082.0,960.0,-8.0
697,2016-05-23 09:00:08.712500,4,1363.0,-1069.0,962.0,-3.0
698,2016-05-23 09:00:08.725000,4,1407.0,-1066.0,966.0,-5.0
699,2016-05-23 09:00:08.737500,4,1570.0,-1064.0,962.0,-13.0
700,2016-05-23 09:00:08.750000,4,1745.0,-1060.0,964.0,-9.0
701,2016-05-23 09:00:08.762500,4,1805.0,-1054.0,962.0,-14.0
702,2016-05-23 09:00:08.775000,4,1854.0,-1051.0,968.0,-14.0
703,2016-05-23 09:00:08.787500,4,1886.0,-1054.0,975.0,-20.0
704,2016-05-23 09:00:08.800000,4,2003.0,-1058.0,987.0,-26.0
705,2016-05-23 09:00:08.812500,4,2075.0,-1052.0,988.0,-13.0
706,2016-05-23 09:00:08.825000,4,2106.0,-1058.0,987.0,-13.0
707,2016-05-23 09:00:08.837500,4,2114.0,-1071.0,998.0,-6.0
708,2016-05-23 09:00:08.850000,4,2152.0,-1076.0,1018.0,-9.0
709,2016-05-23 09:00:08.862500,4,2275.0,-1077.0,1029.0,-35.0
710,2016-05-23 09:00:08.875000,4,2411.0,-1082.0,1040.0,-39.0
711,2016-05-23 09:00:08.887500,4,2601.0,-1074.0,1044.0,-27.0
712,2016-05-23 09:00:08.900000,4,2885.0,-1078.0,1039.0,-24.0
713,2016-05-23 09:00:08.912500,4,2957.0,-1069.0,1041.0,-13.0
714,2016-05-23 09:00:08.925000,4,3150.0,-1074.0,1049.0,-18.0
715,2016-05-23 09:00:08.937500,4,3349.0,-1065.0,1050.0,-37.0
716,2016-05-23 09:00:08.950000,4,3480.0,-1054.0,1048.0,-47.0
717,2016-05-23 09:00:08.962500,4,3771.0,-1068.0,1058.0,-26.0
718,2016-05-23 09:00:08.975000,4,3979.0,-1071.0,1062.0,-10.0
719,2016-05-23 09:00:08.987500,4,4132.0,-1050.0,1056.0,-7.0
720,2016-05-23 09:00:09,4,4247.0,-1046.0,1058.0,-19.0
721,2016-05-23 09:00:09.012500,4,4285.0,-1048.0,1057.0,-32.0
722,2016-05-23 09:00:09.025000,4,4334.0,-1038.0,1052.0,-42.0
723,2016-05-23 09:00:09.037500,4,4364.0,-1034.0,1034.0,-39.0
724,2016-05-23 09:00:09.050000,4,4460.0,-1014.0,1016.0,-42.0
725,2016-05-23 09:00:09.062500,4,4666.0,-1014.0,1019.0,-39.0
726,2016-05-23 09:00:09.075000,4,4860.0,-1028.0,1029.0,-51.0
727,2016-05-23 09:00:09.087500,4,5148.0,-1037.0,1056.0,-47.0
728,2016-05-23 09:00:09.100000,4,5339.0,-1034.0,1057.0,-29.0
729,2016-05-23 09:00:09.112500,4,5348.0,-1030.0,1059.0,-9.0
730,2016-05-23 09:00:09.125000,4,5349.0,-1027.0,1064.0,-3.0
731,2016-05-23 09:00:09.137500,4,5246.0,-1031.0,1068.0,-8.0
732,2016-05-23 09:00:09.150000,4,5142.0,-1038.0,1079.0,-30.0
733,2016-05-23 09:00:09.162500,4,5068.0,-1024.0,1076.0,-49.0
734,2016-05-23 09:00:09.175000,4,5129.0,-1026.0,1067.0,-60.0
735,2016-05-23 09:00:09.187500,4,5305.0,-1025.0,1050.0,-68.0
736,2016-05-23 09:00:09.200000,4,5391.0,-1028.0,1063.0,-75.0
737,2016-05-23 09:00:09.212500,4,5358.0,-1032.0,1083.0,-62.0
738,2016-05-23 09:00:09.225000,4,5280.0,-1024.0,1093.0,-58.0
739,2016-05-23 09:00:09.237500,4,5253.0,-1012.0,1098.0,-45.0
740,2016-05-23 09:00:09.250000,4,5173.0,-1008.0,1097.0,-39.0
741,2016-05-23 09:00:09.262500,4,5074.0,-1012.0,1103.0,-33.0
742,2016-05-23 09:00:09.275000,4,5108.0,-1020.0,1107.0,-36.0
743,2016-05-23 09:00:09.287500,4,5217.0,-1021.0,1108.0,-29.0
744,2016-05-23 09:00:09.300000,4,5294.0,-1032.0,1119.0,-45.0
745,2016-05-23 09:00:09.312500,4,5274.0,-1029.0,1118.0,-61.0
746,2016-05-23 09:00:09.325000,4,5279.0,-1023.0,1115.0,-48.0
747,2016-05-23 09:00:09.337500,4,5259.0,-1023.0,1122.0,-30.0
748,2016-05-23 09:00:09.350000,4,5155.0,-1035.0,1119.0,-23.0
749,2016-05-23 09:00:09.362500,4,5174.0,-1036.0,1130.0,-21.0
750,2016-05-23 09:00:09.375000,4,5159.0,-1047.0,1143.0,-21.0
751,2016-05-23 09:00:09.387500,4,5086.0,-1044.0,1153.0,-28.0
752,2016-05-23 09:00:09.400000,4,4986.0,-1034.0,1154.0,-28.0
753,2016-05-23 09:00:09.412500,4,4963.0,-1023.0,1157.0,-30.0
754,2016-05-23 09:00:09.425000,4,4872.0,-1021.0,1167.0,-45.0
755,2016-05-23 09:00:09.437500,4,4823.0,-1021.0,1186.0,-49.0
756,2016-05-23 09:00:09.450000,4,4686.0,-1005.0,1168.0,-42.0
757,2016-05-23 09:00:09.462500,4,4686.0,-15358.0,-11338.0,-16446.0
758,2016-05-23 09:00:09.475000,4,4699.0,-978.0,1191.0,-43.0
759,2016-05-23 09:00:09.487500,4,4833.0,-985.0,1204.0,-44.0
760,2016-05-23 09:00:09.500000,4,4796.0,-986.0,1208.0,-46.0
761,2016-05-23 09:00:09.512500,4,4869.0,-988.0,1203.0,-44.0
762,2016-05-23 09:00:09.525000,4,4981.0,-985.0,1184.0,-39.0
763,2016-05-23 09:00:09.537500,4,5035.0,-982.0,1175.0,-43.0
764,2016-05-23 09:00:09.550000,4,4995.0,-985.0,1174.0,-45.0
765,2016-05-23 09:00:09.562500,4,4989.0,-980.0,1186.0,-43.0
766,2016-05-23 09:00:09.575000,4,4991.0,-977.0,1193.0,-33.0
767,2016-05-23 09:00:09.587500,4,5039.0,-976.0,1206.0,-34.0
768,2016-05-23 09:00:09.600000,4,5099.0,-976.0,1206.0,-34.0
769,2016-05-23 09:00:09.612500,4,4973.0,-973.0,1213.0,-33.0
770,2016-05-23 09:00:09.625000,4,5010.0,-971.0,1229.0,-44.0
771,2016-05-23 09:00:09.637500,4,4942.0,-974.0,1229.0,-56.0
772,2016-05-23 09:00:09.650000,4,4924.0,-966.0,1227.0,-52.0
773,2016-05-23 09:00:09.662500,4,4982.0,-957.0,1231.0,-45.0
774,2016-05-23 09:00:09.675000,4,5140.0,-949.0,1232.0,-38.0
775,2016-05-23 09:00:09.687500,4,5171.0,-936.0,1224.0,-21.0
776,2016-05-23 09:00:09.700000,4,5147.0,-942.0,1227.0,-23.0
777,2016-05-23 09:00:09.712500,4,5105.0,-954.0,1238.0,-31.0
778,2016-05-23 09:00:09.725000,4,5053.0,-972.0,1246.0,-46.0
779,2016-05-23 09:00:09.737500,4,4976.0,-976.0,1249.0,-54.0
780,2016-05-23 09:00:09.750000,4,4960.0,-974.0,1251.0,-42.0
781,2016-05-23 09:00:09.762500,4,4989.0,-970.0,1250.0,-32.0
782,2016-05-23 09:00:09.775000,4,4918.0,-953.0,1232.0,-32.0
783,2016-05-23 09:00:09.787500,4,4893.0,-956.0,1233.0,-38.0
784,2016-05-23 09:00:09.800000,4,4866.0,-961.0,1262.0,-49.0
785,2016-05-23 09:00:09.812500,4,4833.0,-960.0,1269.0,-41.0
786,2016-05-23 09:00:09.825000,4,4848.0,-942.0,1242.0,-28.0
787,2016-05-23 09:00:09.837500,4,4873.0,-933.0,1239.0,-28.0
788,2016-05-23 09:00:09.850000,4,4950.0,-939.0,1250.0,-30.0
789,2016-05-23 09:00:09.862500,4,4940.0,-935.0,1243.0,-25.0
790,2016-05-23 09:00:09.875000,4,5043.0,-935.0,1239.0,-24.0
791,2016-05-23 09:00:09.887500,4,4951.0,-935.0,1242.0,-27.0
792,2016-05-23 09:00:09.900000,4,4974.0,-938.0,1247.0,-33.0
793,2016-05-23 09:00:09.912500,4,5048.0,-940.0,1273.0,-35.0
794,2016-05-23 09:00:09.925000,4,4935.0,-938.0,1274.0,-38.0
795,2016-05-23 09:00:09.937500,4,4908.0,-937.0,1259.0,-53.0
796,2016-05-23 09:00:09.950000,4,4919.0,-939.0,1298.0,-54.0
797,2016-05-23 09:00:09.962500,4,4961.0,-927.0,1310.0,-55.0
798,2016-05-23 09:00:09.975000,4,4959.0,-925.0,1316.0,-58.0
799,2016-05-23 09:00:09.987500,4,4971.0,-923.0,1323.0,-67.0
800,2016-05-23 09:00:10,4,4950.0,-927.0,1330.0,-65.0
801,2016-05-23 09:00:10.012500,4,4974.0,-917.0,1308.0,-52.0
802,2016-05-23 09:00:10.025000,4,4982.0,-906.0,1296.0,-44.0
803,2016-05-23 09:00:10.037500,4,4929.0,-900.0,1281.0,-36.0
804,2016-05-23 09:00:10.050000,4,4826.0,-910.0,1282.0,-39.0
805,2016-05-23 09:00:10.062500,4,4783.0,-905.0,1276.0,-50.0
806,2016-05-23 09:00:10.075000,4,4840.0,-906.0,1286.0,-52.0
807,2016-05-23 09:00:10.087500,4,4837.0,-907.0,1303.0,-53.0
808,2016-05-23 09:00:10.100000,4,4890.0,-909.0,1311.0,-64.0
809,2016-05-23 09:00:10.112500,4,4822.0,-902.0,1321.0,-60.0
810,2016-05-23 09:00:10.125000,4,4809.0,-899.0,1316.0,-50.0
811,2016-05-23 09:00:10.137500,4,4794.0,-898.0,1313.0,-40.0
812,2016-05-23 09:00:10.150000,4,4737.0,-879.0,1309.0,-35.0
813,2016-05-23 09:00:10.162500,4,4827.0,-863.0,1315.0,-32.0
814,2016-05-23 09:00:10.175000,4,4864.0,-859.0,1317.0,-40.0
815,2016-05-23 09:00:10.187500,4,4839.0,-869.0,1335.0,-55.0
816,2016-05-23 09:00:10.200000,4,4807.0,-865.0,1344.0,-52.0
817,2016-05-23 09:00:10.212500,4,4765.0,-863.0,1350.0,-50.0
818,2016-05-23 09:00:10.225000,4,4795.0,-870.0,1352.0,-45.0
819,2016-05-23 09:00:10.237500,4,4753.0,-867.0,1355.0,-40.0
820,2016-05-23 09:00:10.250000,4,4790.0,-873.0,1357.0,-44.0
821,2016-05-23 09:00:10.262500,4,4928.0,-880.0,1364.0,-49.0
822,2016-05-23 09:00:10.275000,4,5044.0,-872.0,1363.0,-51.0
823,2016-05-23 09:00:10.287500,4,5156.0,-867.0,1358.0,-54.0
824,2016-05-23 09:00:10.300000,4,5207.0,-854.0,1351.0,-47.0
825,2016-05-23 09:00:10.312500,4,5260.0,-9886.0,4280.0,24602.0
826,2016-05-23 09:00:10.325000,4,5245.0,-824.0,1377.0,-43.0
827,2016-05-23 09:00:10.337500,4,5200.0,-835.0,1383.0,-49.0
828,2016-05-23 09:00:10.350000,4,5402.0,-836.0,1383.0,-51.0
829,2016-05-23 09:00:10.362500,4,5431.0,-833.0,1369.0,-55.0
830,2016-05-23 09:00:10.375000,4,5606.0,-819.0,1362.0,-49.0
831,2016-05-23 09:00:10.387500,4,5496.0,-821.0,1356.0,-49.0
832,2016-05-23 09:00:10.400000,4,5545.0,-812.0,1363.0,-39.0
833,2016-05-23 09:00:10.412500,4,5786.0,-813.0,1358.0,-32.0
834,2016-05-23 09:00:10.425000,4,5948.0,-817.0,1370.0,-22.0
835,2016-05-23 09:00:10.437500,4,6202.0,-812.0,1379.0,-23.0
836,2016-05-23 09:00:10.450000,4,6435.0,-802.0,1379.0,-31.0
837,2016-05-23 09:00:10.462500,4,6556.0,-794.0,1399.0,-53.0
838,2016-05-23 09:00:10.475000,4,6780.0,-780.0,1393.0,-73.0
839,2016-05-23 09:00:10.487500,4,6885.0,-779.0,1397.0,-70.0
840,2016-05-23 09:00:10.500000,4,6940.0,-781.0,1389.0,-79.0
841,2016-05-23 09:00:10.512500,4,6848.0,-793.0,1398.0,-79.0
842,2016-05-23 09:00:10.525000,4,6716.0,-801.0,1423.0,-76.0
843,2016-05-23 09:00:10.537500,4,6669.0,-800.0,1421.0,-68.0
844,2016-05-23 09:00:10.550000,4,6539.0,-798.0,1405.0,-71.0
845,2016-05-23 09:00:10.562500,4,6525.0,-795.0,1409.0,-64.0
846,2016-05-23 09:00:10.575000,4,6500.0,-795.0,1397.0,-60.0
847,2016-05-23 09:00:10.587500,4,6415.0,-795.0,1392.0,-59.0
848,2016-05-23 09:00:10.600000,4,6248.0,-791.0,1399.0,-52.0
849,2016-05-23 09:00:10.612500,4,6091.0,-13962.0,15410.0,3314.0
850,2016-05-23 09:00:10.625000,4,5533.0,-764.0,1432.0,-35.0
851,2016-05-23 09:00:10.637500,4,5266.0,-764.0,1449.0,-39.0
852,2016-05-23 09:00:10.650000,4,5194.0,-748.0,1432.0,-39.0
853,2016-05-23 09:00:10.662500,4,5129.0,-737.0,1412.0,-37.0
854,2016-05-23 09:00:10.675000,4,5097.0,-728.0,1409.0,-37.0
855,2016-05-23 09:00:10.687500,4,4959.0,-724.0,1404.0,-36.0
856,2016-05-23 09:00:10.700000,4,4917.0,-728.0,1417.0,-38.0
857,2016-05-23 09:00:10.712500,4,4953.0,-738.0,1428.0,-52.0
858,2016-05-23 09:00:10.725000,4,5044.0,-737.0,1442.0,-50.0
859,2016-05-23 09:00:10.737500,4,5083.0,-744.0,1448.0,-66.0
860,2016-05-23 09:00:10.750000,4,5073.0,-732.0,1454.0,-65.0
861,2016-05-23 09:00:10.762500,4,5010.0,-729.0,1452.0,-60.0
862,2016-05-23 09:00:10.775000,4,4942.0,-734.0,1452.0,-72.0
863,2016-05-23 09:00:10.787500,4,4888.0,-740.0,1462.0,-72.0
864,2016-05-23 09:00:10.800000,4,4895.0,-741.0,1446.0,-67.0
865,2016-05-23 09:00:10.812500,4,4927.0,-733.0,1434.0,-58.0
866,2016-05-23 09:00:10.825000,4,4862.0,-731.0,1438.0,-47.0
867,2016-05-23 09:00:10.837500,4,4838.0,-722.0,1446.0,-39.0
868,2016-05-23 09:00:10.850000,4,4695.0,-729.0,1456.0,-58.0
869,2016-05-23 09:00:10.862500,4,4457.0,-718.0,1474.0,-56.0
870,2016-05-23 09:00:10.875000,4,4179.0,-718.0,1466.0,-64.0
871,2016-05-23 09:00:10.887500,4,3895.0,-678.0,1438.0,-11.0
872,2016-05-23 09:00:10.900000,4,3832.0,-696.0,1418.0,-49.0
873,2016-05-23 09:00:10.912500,4,3749.0,-668.0,1363.0,-24.0
874,2016-05-23 09:00:10.925000,4,3743.0,-696.0,1436.0,-49.0
875,2016-05-23 09:00:10.937500,4,3699.0,-694.0,1439.0,-64.0
876,2016-05-23 09:00:10.950000,4,3599.0,-695.0,1461.0,-72.0
877,2016-05-23 09:00:10.962500,4,3604.0,-695.0,1482.0,-86.0
878,2016-05-23 09:00:10.975000,4,3685.0,-689.0,1485.0,-86.0
879,2016-05-23 09:00:10.987500,4,3832.0,-689.0,1476.0,-88.0
880,2016-05-23 09:00:11,4,3847.0,-682.0,1464.0,-75.0
881,2016-05-23 09:00:11.012500,4,3868.0,-670.0,1476.0,-66.0
882,2016-05-23 09:00:11.025000,4,4045.0,-671.0,1490.0,-70.0
883,2016-05-23 09:00:11.037500,4,4093.0,-667.0,1508.0,-66.0
884,2016-05-23 09:00:11.050000,4,4168.0,-666.0,1516.0,-68.0
885,2016-05-23 09:00:11.062500,4,4294.0,-665.0,1514.0,-55.0
886,2016-05-23 09:00:11.075000,4,4410.0,-667.0,1501.0,-46.0
887,2016-05-23 09:00:11.087500,4,4300.0,-663.0,1492.0,-49.0
888,2016-05-23 09:00:11.100000,4,4167.0,-660.0,1488.0,-62.0
889,2016-05-23 09:00:11.112500,4,4137.0,-659.0,1493.0,-58.0
890,2016-05-23 09:00:11.125000,4,4186.0,-7301.0,4972.0,31748.0
891,2016-05-23 09:00:11.137500,4,4284.0,-640.0,1530.0,-113.0
892,2016-05-23 09:00:11.150000,4,4246.0,-660.0,1566.0,-128.0
893,2016-05-23 09:00:11.162500,4,4247.0,-649.0,1566.0,-110.0
894,2016-05-23 09:00:11.175000,4,4377.0,-640.0,1560.0,-81.0
895,2016-05-23 09:00:11.187500,4,4492.0,-637.0,1566.0,-72.0
896,2016-05-23 09:00:11.200000,4,4823.0,-627.0,1550.0,-49.0
897,2016-05-23 09:00:11.212500,4,5088.0,-619.0,1532.0,-46.0
898,2016-05-23 09:00:11.225000,4,5251.0,-609.0,1534.0,-48.0
899,2016-05-23 09:00:11.237500,4,5323.0,-609.0,1541.0,-67.0
900,2016-05-23 09:00:11.250000,4,5276.0,-612.0,1540.0,-63.0
901,2016-05-23 09:00:11.262500,4,5051.0,-610.0,1542.0,-60.0
902,2016-05-23 09:00:11.275000,4,4480.0,-599.0,1529.0,-61.0
903,2016-05-23 09:00:11.287500,4,4455.0,-588.0,1468.0,-66.0
904,2016-05-23 09:00:11.300000,4,4499.0,-595.0,1454.0,-62.0
905,2016-05-23 09:00:11.312500,4,4578.0,-604.0,1467.0,-72.0
906,2016-05-23 09:00:11.325000,4,4827.0,-589.0,1470.0,-71.0
907,2016-05-23 09:00:11.337500,4,5308.0,-592.0,1473.0,-75.0
908,2016-05-23 09:00:11.350000,4,5642.0,-585.0,1489.0,-43.0
909,2016-05-23 09:00:11.362500,4,6003.0,-604.0,1476.0,-78.0
910,2016-05-23 09:00:11.375000,4,5956.0,-588.0,1521.0,-69.0
911,2016-05-23 09:00:11.387500,4,5867.0,-592.0,1556.0,-65.0
912,2016-05-23 09:00:11.400000,4,6535.0,-562.0,1585.0,-45.0
913,2016-05-23 09:00:11.412500,4,6848.0,-547.0,1564.0,-13.0
914,2016-05-23 09:00:11.425000,4,6878.0,-565.0,1533.0,-25.0
915,2016-05-23 09:00:11.437500,4,6688.0,-547.0,1568.0,-78.0
916,2016-05-23 09:00:11.450000,4,6517.0,-583.0,1530.0,-89.0
917,2016-05-23 09:00:11.462500,4,7335.0,-577.0,1517.0,-79.0
918,2016-05-23 09:00:11.475000,4,8446.0,-584.0,1570.0,-91.0
919,2016-05-23 09:00:11.487500,4,9452.0,-564.0,1643.0,-101.0
920,2016-05-23 09:00:11.500000,4,10348.0,-490.0,1569.0,-65.0
921,2016-05-23 09:00:11.512500,4,10811.0,-432.0,1525.0,-57.0
922,2016-05-23 09:00:11.525000,4,11042.0,-360.0,1490.0,-13.0
923,2016-05-23 09:00:11.537500,4,10900.0,-359.0,1482.0,-32.0
924,2016-05-23 09:00:11.550000,4,10509.0,-350.0,1519.0,-60.0
925,2016-05-23 09:00:11.562500,4,10325.0,-9372.0,23043.0,6807.0
926,2016-05-23 09:00:11.575000,4,10200.0,-571.0,1407.0,131.0
927,2016-05-23 09:00:11.587500,4,10647.0,-559.0,1534.0,180.0
928,2016-05-23 09:00:11.600000,4,12597.0,-438.0,1601.0,-16.0
929,2016-05-23 09:00:11.612500,4,14668.0,-259.0,1779.0,22.0
930,2016-05-23 09:00:11.625000,4,16246.0,-444.0,1664.0,-193.0
931,2016-05-23 09:00:11.637500,4,16885.0,-595.0,1618.0,-227.0
932,2016-05-23 09:00:11.650000,4,17135.0,-602.0,1651.0,-300.0
933,2016-05-23 09:00:11.662500,4,17281.0,-594.0,1638.0,-320.0
934,2016-05-23 09:00:11.675000,4,17195.0,-583.0,1600.0,-227.0
935,2016-05-23 09:00:11.687500,4,16953.0,-588.0,1560.0,-173.0
936,2016-05-23 09:00:11.700000,4,17334.0,-604.0,1557.0,-158.0
937,2016-05-23 09:00:11.712500,4,17466.0,-643.0,1601.0,-190.0
938,2016-05-23 09:00:11.725000,4,17349.0,-619.0,1627.0,-173.0
939,2016-05-23 09:00:11.737500,4,17600.0,-632.0,1567.0,-140.0
940,2016-05-23 09:00:11.750000,4,17501.0,-429.0,1490.0,19.0
941,2016-05-23 09:00:11.762500,4,16478.0,-437.0,1450.0,11.0
942,2016-05-23 09:00:11.775000,4,15613.0,-424.0,1460.0,-5.0
943,2016-05-23 09:00:11.787500,4,15171.0,-431.0,1486.0,-25.0
944,2016-05-23 09:00:11.800000,4,15144.0,-454.0,1510.0,-46.0
945,2016-05-23 09:00:11.812500,4,15384.0,-426.0,1455.0,-57.0
946,2016-05-23 09:00:11.825000,4,15479.0,-415.0,1475.0,-55.0
947,2016-05-23 09:00:11.837500,4,15623.0,-431.0,1530.0,-73.0
948,2016-05-23 09:00:11.850000,4,15810.0,-441.0,1584.0,-105.0
949,2016-05-23 09:00:11.862500,4,15955.0,-438.0,1606.0,-116.0
950,2016-05-23 09:00:11.875000,4,16272.0,-439.0,1630.0,-93.0
951,2016-05-23 09:00:11.887500,4,16954.0,-445.0,1642.0,-69.0
952,2016-05-23 09:00:11.900000,4,18009.0,-418.0,1674.0,-64.0
953,2016-05-23 09:00:11.912500,4,18433.0,5541.0,5130.0,-1273.0
954,2016-05-23 09:00:11.925000,4,19001.0,-238.0,1578.0,165.0
955,2016-05-23 09:00:11.937500,4,21913.0,-415.0,1694.0,213.0
956,2016-05-23 09:00:11.950000,4,21531.0,-326.0,1661.0,5.0
957,2016-05-23 09:00:11.962500,4,19757.0,-238.0,1715.0,-218.0
958,2016-05-23 09:00:11.975000,4,20544.0,-306.0,1909.0,-93.0
959,2016-05-23 09:00:11.987500,4,21172.0,-294.0,2015.0,61.0
960,2016-05-23 09:00:12,4,21611.0,-167.0,1868.0,87.0
961,2016-05-23 09:00:12.012500,4,22404.0,-172.0,1706.0,221.0
962,2016-05-23 09:00:12.025000,4,23316.0,-112.0,1647.0,442.0
963,2016-05-23 09:00:12.037500,4,23490.0,-83.0,1635.0,455.0
964,2016-05-23 09:00:12.050000,4,23100.0,-12.0,1607.0,540.0
965,2016-05-23 09:00:12.062500,4,23655.0,20.0,1798.0,465.0
966,2016-05-23 09:00:12.075000,4,25817.0,-20911.0,-31323.0,-15618.0
967,2016-05-23 09:00:12.087500,4,27511.0,-475.0,1448.0,373.0
968,2016-05-23 09:00:12.100000,4,28410.0,-462.0,1385.0,393.0
969,2016-05-23 09:00:12.112500,4,28522.0,-343.0,1364.0,226.0
970,2016-05-23 09:00:12.125000,4,28463.0,-229.0,1435.0,0.0
971,2016-05-23 09:00:12.137500,4,28401.0,-127.0,1584.0,-207.0
972,2016-05-23 09:00:12.150000,4,28353.0,-94.0,1832.0,-433.0
973,2016-05-23 09:00:12.162500,4,28474.0,-56.0,1902.0,-478.0
974,2016-05-23 09:00:12.175000,4,28366.0,4.0,1828.0,-434.0
975,2016-05-23 09:00:12.187500,4,27329.0,104.0,1712.0,-371.0
976,2016-05-23 09:00:12.200000,4,26745.0,195.0,1612.0,-256.0
977,2016-05-23 09:00:12.212500,4,26306.0,288.0,1595.0,-99.0
978,2016-05-23 09:00:12.225000,4,25349.0,307.0,1689.0,97.0
979,2016-05-23 09:00:12.237500,4,21017.0,-16.0,1554.0,514.0
980,2016-05-23 09:00:12.250000,4,44534.0,130.0,1312.0,484.0
981,2016-05-23 09:00:12.262500,4,26552.0,391.0,929.0,671.0
982,2016-05-23 09:00:12.275000,4,11384.0,523.0,947.0,999.0
983,2016-05-23 09:00:12.287500,4,2533.0,418.0,1518.0,1532.0
984,2016-05-23 09:00:12.300000,4,634.0,232.0,2568.0,2095.0
985,2016-05-23 09:00:12.312500,4,571.0,266.0,3344.0,2467.0
986,2016-05-23 09:00:12.325000,4,40.0,556.0,3845.0,2561.0
987,2016-05-23 09:00:12.337500,4,11.0,950.0,4354.0,2520.0
988,2016-05-23 09:00:12.350000,4,65483.0,1229.0,4849.0,2374.0
989,2016-05-23 09:00:12.362500,4,65518.0,1115.0,5115.0,1944.0
990,2016-05-23 09:00:12.375000,4,65494.0,845.0,5221.0,1565.0
991,2016-05-23 09:00:12.387500,4,33.0,2345.0,1868.0,-205.0
992,2016-05-23 09:00:12.400000,4,65522.0,2651.0,1655.0,-245.0
993,2016-05-23 09:00:12.412500,4,65533.0,2700.0,1657.0,-309.0
994,2016-05-23 09:00:12.425000,4,15.0,2522.0,1730.0,-300.0
995,2016-05-23 09:00:12.437500,4,27.0,2285.0,1700.0,-304.0
996,2016-05-23 09:00:12.450000,4,67.0,1993.0,1663.0,-411.0
997,2016-05-23 09:00:12.462500,4,65457.0,1598.0,1642.0,-625.0
998,2016-05-23 09:00:12.475000,4,86.0,1240.0,1564.0,-930.0
999,2016-05-23 09:00:12.487500,4,65432.0,960.0,1527.0,-1187.0
1000,2016-05-23 09:00:12.500000,4,65466.0,823.0,1516.0,-1369.0
1001,2016-05-23 09:00:12.512500,4,21.0,730.0,1413.0,-1475.0
1002,2016-05-23 09:00:12.525000,4,65474.0,659.0,1099.0,-1463.0
1003,2016-05-23 09:00:12.537500,4,2.0,-1840.0,517.0,-2430.0
1004,2016-05-23 09:00:12.550000,4,23.0,-1635.0,621.0,-2335.0
1005,2016-05-23 09:00:12.562500,4,20.0,-1476.0,817.0,-2308.0
1006,2016-05-23 09:00:12.575000,4,65489.0,-1255.0,1116.0,-2334.0
1007,2016-05-23 09:00:12.587500,4,87.0,-929.0,1587.0,-2330.0
1008,2016-05-23 09:00:12.600000,4,65509.0,-568.0,2003.0,-2262.0
1009,2016-05-23 09:00:12.612500,4,65466.0,-299.0,2168.0,-2148.0
1010,2016-05-23 09:00:12.625000,4,65482.0,-125.0,2096.0,-1911.0
1011,2016-05-23 09:00:12.637500,4,65498.0,21.0,1906.0,-1665.0
1012,2016-05-23 09:00:12.650000,4,65473.0,182.0,1641.0,-1514.0
1013,2016-05-23 09:00:12.662500,4,94.0,451.0,1468.0,-1427.0
1014,2016-05-23 09:00:12.675000,4,65371.0,11005.0,2323.0,-27202.0
1015,2016-05-23 09:00:12.687500,4,65480.0,1447.0,1132.0,-466.0
1016,2016-05-23 09:00:12.700000,4,65482.0,1705.0,1673.0,-715.0
1017,2016-05-23 09:00:12.712500,4,65471.0,1754.0,1794.0,-772.0
1018,2016-05-23 09:00:12.725000,4,65520.0,1524.0,1628.0,-536.0
1019,2016-05-23 09:00:12.737500,4,65526.0,1275.0,1465.0,-39.0
1020,2016-05-23 09:00:12.750000,4,65494.0,1070.0,1310.0,670.0
1021,2016-05-23 09:00:12.762500,4,65501.0,854.0,1121.0,1402.0
1022,2016-05-23 09:00:12.775000,4,100.0,713.0,922.0,1714.0
1023,2016-05-23 09:00:12.787500,4,65442.0,625.0,832.0,1739.0
1024,2016-05-23 09:00:12.800000,4,46.0,536.0,836.0,1688.0
1025,2016-05-23 09:00:12.812500,4,10.0,-2260.0,16885.0,-17916.0
1026,2016-05-23 09:00:12.825000,4,22.0,-1654.0,781.0,-2765.0
1027,2016-05-23 09:00:12.837500,4,65363.0,-1423.0,904.0,-3263.0
1028,2016-05-23 09:00:12.850000,4,209.0,-1580.0,1030.0,-3449.0
1029,2016-05-23 09:00:12.862500,4,187.0,-2094.0,948.0,-3174.0
1030,2016-05-23 09:00:12.875000,4,65459.0,-2707.0,734.0,-2493.0
1031,2016-05-23 09:00:12.887500,4,137.0,-3238.0,505.0,-1549.0
1032,2016-05-23 09:00:12.900000,4,65534.0,-3386.0,425.0,-377.0
1033,2016-05-23 09:00:12.912500,4,169.0,-3272.0,523.0,698.0
1034,2016-05-23 09:00:12.925000,4,100.0,11349.0,31412.0,-6553.0
1035,2016-05-23 09:00:12.937500,4,17.0,-901.0,1065.0,1224.0
1036,2016-05-23 09:00:12.950000,4,183.0,-386.0,361.0,-43.0
1037,2016-05-23 09:00:12.962500,4,72.0,176.0,-28.0,-769.0
1038,2016-05-23 09:00:12.975000,4,32.0,613.0,-43.0,-831.0
1039,2016-05-23 09:00:12.987500,4,63.0,842.0,175.0,-449.0
1040,2016-05-23 09:00:13,4,1.0,825.0,602.0,165.0
1041,2016-05-23 09:00:13.012500,4,65516.0,656.0,1188.0,1039.0
1042,2016-05-23 09:00:13.025000,4,2.0,229.0,1911.0,1974.0
1043,2016-05-23 09:00:13.037500,4,65509.0,-438.0,2486.0,2336.0
1044,2016-05-23 09:00:13.050000,4,62.0,-1044.0,2507.0,2273.0
1045,2016-05-23 09:00:13.062500,4,120.0,-1138.0,2324.0,2000.0
1046,2016-05-23 09:00:13.075000,4,124.0,-824.0,2142.0,1660.0
1047,2016-05-23 09:00:13.087500,4,161.0,-332.0,1910.0,1149.0
1048,2016-05-23 09:00:13.100000,4,102.0,116.0,1685.0,557.0
1049,2016-05-23 09:00:13.112500,4,209.0,437.0,1566.0,106.0
1050,2016-05-23 09:00:13.125000,4,211.0,727.0,1455.0,-144.0
1051,2016-05-23 09:00:13.137500,4,192.0,963.0,1254.0,-159.0
1052,2016-05-23 09:00:13.150000,4,232.0,1086.0,1026.0,-63.0
1053,2016-05-23 09:00:13.162500,4,183.0,1081.0,934.0,44.0
1054,2016-05-23 09:00:13.175000,4,312.0,1461.0,2494.0,-2981.0
1055,2016-05-23 09:00:13.187500,4,275.0,1388.0,1623.0,-2048.0
1056,2016-05-23 09:00:13.200000,4,129.0,1058.0,1872.0,-1649.0
1057,2016-05-23 09:00:13.212500,4,65531.0,1553.0,-549.0,-855.0
1058,2016-05-23 09:00:13.225000,4,65531.0,1913.0,310.0,-768.0
1059,2016-05-23 09:00:13.237500,4,65456.0,1549.0,-416.0,-1134.0
1060,2016-05-23 09:00:13.250000,4,65442.0,1852.0,-96.0,-768.0
1061,2016-05-23 09:00:13.262500,4,65396.0,1530.0,90.0,-861.0
1062,2016-05-23 09:00:13.275000,4,205.0,1301.0,-1359.0,-246.0
1063,2016-05-23 09:00:13.287500,4,64911.0,2565.0,-2784.0,-3123.0
1064,2016-05-23 09:00:13.300000,4,65181.0,2969.0,-1625.0,-1551.0
1065,2016-05-23 09:00:13.312500,4,65060.0,2753.0,-1250.0,-1846.0
1066,2016-05-23 09:00:13.325000,4,64961.0,2033.0,-1254.0,-3609.0
1067,2016-05-23 09:00:13.337500,4,64916.0,2247.0,1704.0,-739.0
1068,2016-05-23 09:00:13.350000,4,64986.0,1097.0,1441.0,-1697.0
1069,2016-05-23 09:00:13.362500,4,65108.0,949.0,1641.0,-815.0
1070,2016-05-23 09:00:13.375000,4,65221.0,524.0,1686.0,-25.0
1071,2016-05-23 09:00:13.387500,4,65346.0,431.0,1369.0,784.0
1072,2016-05-23 09:00:13.400000,4,65396.0,310.0,1265.0,524.0
1073,2016-05-23 09:00:13.412500,4,65471.0,328.0,1156.0,392.0
1074,2016-05-23 09:00:13.425000,4,65462.0,422.0,1131.0,301.0
1075,2016-05-23 09:00:13.437500,4,65448.0,471.0,1131.0,219.0
1076,2016-05-23 09:00:13.450000,4,65515.0,505.0,1125.0,155.0
1077,2016-05-23 09:00:13.462500,4,65483.0,542.0,1122.0,116.0
1078,2016-05-23 09:00:13.475000,4,65481.0,558.0,1121.0,80.0
1079,2016-05-23 09:00:13.487500,4,65492.0,575.0,1109.0,61.0
1080,2016-05-23 09:00:13.500000,4,65501.0,582.0,1105.0,39.0
1081,2016-05-23 09:00:13.512500,4,65482.0,587.0,1090.0,27.0
1082,2016-05-23 09:00:13.525000,4,65463.0,589.0,1082.0,21.0
1083,2016-05-23 09:00:13.537500,4,65525.0,586.0,1074.0,15.0
1084,2016-05-23 09:00:13.550000,4,1.0,590.0,1064.0,7.0
1085,2016-05-23 09:00:13.562500,4,7.0,590.0,1061.0,10.0
1086,2016-05-23 09:00:13.575000,4,9.0,579.0,1050.0,13.0
1087,2016-05-23 09:00:13.587500,4,50.0,573.0,1036.0,18.0
1088,2016-05-23 09:00:13.600000,4,39.0,571.0,1030.0,8.0
1089,2016-05-23 09:00:13.612500,4,2.0,571.0,1023.0,7.0
1090,2016-05-23 09:00:13.625000,4,65492.0,562.0,1013.0,3.0
1091,2016-05-23 09:00:13.637500,4,65499.0,558.0,1008.0,10.0
1092,2016-05-23 09:00:13.650000,4,6.0,560.0,996.0,7.0
1093,2016-05-23 09:00:13.662500,4,30.0,553.0,996.0,8.0
1094,2016-05-23 09:00:13.675000,4,65488.0,545.0,990.0,13.0
1095,2016-05-23 09:00:13.687500,4,65462.0,548.0,978.0,4.0
1096,2016-05-23 09:00:13.700000,4,65462.0,544.0,969.0,13.0
1097,2016-05-23 09:00:13.712500,4,65479.0,540.0,962.0,18.0
1098,2016-05-23 09:00:13.725000,4,65491.0,532.0,948.0,16.0
1099,2016-05-23 09:00:13.737500,4,28.0,526.0,949.0,12.0
1100,2016-05-23 09:00:13.750000,4,65437.0,521.0,943.0,10.0
1101,2016-05-23 09:00:13.762500,4,65474.0,519.0,929.0,13.0
1102,2016-05-23 09:00:13.775000,4,65506.0,519.0,926.0,14.0
1103,2016-05-23 09:00:13.787500,4,65503.0,516.0,921.0,21.0
1104,2016-05-23 09:00:13.800000,4,65426.0,505.0,911.0,19.0
1105,2016-05-23 09:00:13.812500,4,65456.0,507.0,901.0,15.0
1106,2016-05-23 09:00:13.825000,4,65489.0,506.0,895.0,24.0
1107,2016-05-23 09:00:13.837500,4,65475.0,504.0,891.0,27.0
1108,2016-05-23 09:00:13.850000,4,65456.0,493.0,883.0,32.0
1109,2016-05-23 09:00:13.862500,4,65511.0,491.0,873.0,37.0
1110,2016-05-23 09:00:13.875000,4,65517.0,492.0,870.0,27.0
1111,2016-05-23 09:00:13.887500,4,14.0,491.0,865.0,17.0
1112,2016-05-23 09:00:13.900000,4,65513.0,490.0,856.0,24.0
1113,2016-05-23 09:00:13.912500,4,65512.0,484.0,840.0,49.0
1114,2016-05-23 09:00:13.925000,4,65499.0,481.0,844.0,36.0
1115,2016-05-23 09:00:13.937500,4,65531.0,475.0,841.0,37.0
1116,2016-05-23 09:00:13.950000,4,65527.0,467.0,828.0,49.0
1117,2016-05-23 09:00:13.962500,4,65535.0,456.0,809.0,29.0
1118,2016-05-23 09:00:13.975000,4,65530.0,449.0,812.0,28.0
1119,2016-05-23 09:00:13.987500,4,65510.0,452.0,808.0,53.0
1120,2016-05-23 09:00:14,4,65535.0,442.0,804.0,24.0
1121,2016-05-23 09:00:14.012500,4,65494.0,439.0,791.0,47.0
1122,2016-05-23 09:00:14.025000,4,65531.0,439.0,768.0,87.0
1123,2016-05-23 09:00:14.037500,4,65491.0,432.0,783.0,58.0
1124,2016-05-23 09:00:14.050000,4,65515.0,431.0,790.0,27.0
1125,2016-05-23 09:00:14.062500,4,65468.0,427.0,764.0,46.0
1126,2016-05-23 09:00:14.075000,4,65505.0,431.0,754.0,58.0
1127,2016-05-23 09:00:14.087500,4,65509.0,425.0,752.0,35.0
1128,2016-05-23 09:00:14.100000,4,65514.0,422.0,748.0,35.0
1129,2016-05-23 09:00:14.112500,4,65515.0,414.0,746.0,41.0
1130,2016-05-23 09:00:14.125000,4,65517.0,411.0,739.0,47.0
1131,2016-05-23 09:00:14.137500,4,54.0,405.0,736.0,25.0
1132,2016-05-23 09:00:14.150000,4,5.0,398.0,739.0,11.0
1133,2016-05-23 09:00:14.162500,4,65505.0,392.0,749.0,6.0
1134,2016-05-23 09:00:14.175000,4,65511.0,390.0,731.0,19.0
1135,2016-05-23 09:00:14.187500,4,65503.0,384.0,720.0,21.0
1136,2016-05-23 09:00:14.200000,4,65524.0,382.0,715.0,34.0
1137,2016-05-23 09:00:14.212500,4,6.0,374.0,713.0,23.0
1138,2016-05-23 09:00:14.225000,4,65509.0,379.0,704.0,44.0
1139,2016-05-23 09:00:14.237500,4,65475.0,375.0,694.0,57.0
1140,2016-05-23 09:00:14.250000,4,65497.0,375.0,682.0,43.0
1141,2016-05-23 09:00:14.262500,4,65528.0,376.0,678.0,57.0
1142,2016-05-23 09:00:14.275000,4,65531.0,371.0,676.0,62.0
1143,2016-05-23 09:00:14.287500,4,65476.0,373.0,675.0,56.0
1144,2016-05-23 09:00:14.300000,4,65496.0,372.0,676.0,42.0
1145,2016-05-23 09:00:14.312500,4,65499.0,372.0,670.0,37.0
1146,2016-05-23 09:00:14.325000,4,65524.0,371.0,658.0,41.0
1147,2016-05-23 09:00:14.337500,4,65521.0,370.0,645.0,52.0
1148,2016-05-23 09:00:14.350000,4,65529.0,358.0,636.0,48.0
1149,2016-05-23 09:00:14.362500,4,65509.0,352.0,633.0,48.0
1150,2016-05-23 09:00:14.375000,4,65434.0,359.0,626.0,47.0
1151,2016-05-23 09:00:14.387500,4,65477.0,354.0,626.0,51.0
1152,2016-05-23 09:00:14.400000,4,65511.0,353.0,618.0,56.0
1153,2016-05-23 09:00:14.412500,4,65532.0,347.0,616.0,52.0
1154,2016-05-23 09:00:14.425000,4,65503.0,346.0,607.0,53.0
1155,2016-05-23 09:00:14.437500,4,65528.0,336.0,600.0,56.0
1156,2016-05-23 09:00:14.450000,4,65535.0,332.0,593.0,57.0
1157,2016-05-23 09:00:14.462500,4,65533.0,324.0,594.0,46.0
1158,2016-05-23 09:00:14.475000,4,7.0,320.0,591.0,50.0
1159,2016-05-23 09:00:14.487500,4,65514.0,319.0,585.0,48.0
1160,2016-05-23 09:00:14.500000,4,18.0,326.0,579.0,41.0
1161,2016-05-23 09:00:14.512500,4,65480.0,327.0,578.0,46.0
1162,2016-05-23 09:00:14.525000,4,65475.0,322.0,559.0,32.0
1163,2016-05-23 09:00:14.537500,4,65517.0,322.0,578.0,-6.0
1164,2016-05-23 09:00:14.550000,4,11.0,314.0,559.0,37.0
1165,2016-05-23 09:00:14.562500,4,65515.0,318.0,543.0,26.0
1166,2016-05-23 09:00:14.575000,4,65534.0,313.0,554.0,47.0
1167,2016-05-23 09:00:14.587500,4,65520.0,309.0,554.0,40.0
1168,2016-05-23 09:00:14.600000,4,65519.0,300.0,556.0,39.0
1169,2016-05-23 09:00:14.612500,4,65511.0,296.0,544.0,57.0
1170,2016-05-23 09:00:14.625000,4,65530.0,292.0,540.0,49.0
1171,2016-05-23 09:00:14.637500,4,65477.0,290.0,534.0,72.0
1172,2016-05-23 09:00:14.650000,4,65495.0,287.0,531.0,72.0
1173,2016-05-23 09:00:14.662500,4,65457.0,290.0,531.0,40.0
1174,2016-05-23 09:00:14.675000,4,16.0,286.0,519.0,40.0
1175,2016-05-23 09:00:14.687500,4,0.0,282.0,519.0,66.0
1176,2016-05-23 09:00:14.700000,4,17.0,282.0,518.0,50.0
1177,2016-05-23 09:00:14.712500,4,65476.0,274.0,516.0,38.0
1178,2016-05-23 09:00:14.725000,4,65527.0,268.0,506.0,75.0
1179,2016-05-23 09:00:14.737500,4,34.0,272.0,485.0,61.0
1180,2016-05-23 09:00:14.750000,4,65522.0,278.0,488.0,134.0
1181,2016-05-23 09:00:14.762500,4,65520.0,269.0,498.0,112.0
1182,2016-05-23 09:00:14.775000,4,65515.0,268.0,502.0,77.0
1183,2016-05-23 09:00:14.787500,4,65502.0,272.0,490.0,85.0
1184,2016-05-23 09:00:14.800000,4,65454.0,269.0,471.0,99.0
1185,2016-05-23 09:00:14.812500,4,65499.0,263.0,468.0,91.0
1186,2016-05-23 09:00:14.825000,4,65508.0,255.0,473.0,51.0
1187,2016-05-23 09:00:14.837500,4,13.0,260.0,457.0,69.0
1188,2016-05-23 09:00:14.850000,4,65533.0,261.0,445.0,69.0
1189,2016-05-23 09:00:14.862500,4,65504.0,259.0,443.0,67.0
1190,2016-05-23 09:00:14.875000,4,65507.0,257.0,448.0,66.0
1191,2016-05-23 09:00:14.887500,4,65529.0,249.0,450.0,41.0
1192,2016-05-23 09:00:14.900000,4,65528.0,247.0,448.0,59.0
1193,2016-05-23 09:00:14.912500,4,65487.0,245.0,437.0,74.0
1194,2016-05-23 09:00:14.925000,4,65473.0,241.0,431.0,92.0
1195,2016-05-23 09:00:14.937500,4,65508.0,239.0,429.0,69.0
1196,2016-05-23 09:00:14.950000,4,34.0,238.0,429.0,42.0
1197,2016-05-23 09:00:14.962500,4,65491.0,244.0,427.0,38.0
1198,2016-05-23 09:00:14.975000,4,65487.0,234.0,412.0,55.0
1199,2016-05-23 09:00:14.987500,4,65497.0,243.0,410.0,64.0
1200,2016-05-23 09:00:15,4,65460.0,235.0,409.0,67.0
1201,2016-05-23 09:00:15.012500,4,65514.0,228.0,415.0,70.0
1202,2016-05-23 09:00:15.025000,4,65501.0,226.0,406.0,61.0
1203,2016-05-23 09:00:15.037500,4,65516.0,226.0,406.0,67.0
1204,2016-05-23 09:00:15.050000,4,65517.0,226.0,401.0,66.0
1205,2016-05-23 09:00:15.062500,4,65515.0,224.0,400.0,62.0
1206,2016-05-23 09:00:15.075000,4,65507.0,225.0,397.0,61.0
1207,2016-05-23 09:00:15.087500,4,65526.0,228.0,389.0,69.0
1208,2016-05-23 09:00:15.100000,4,65500.0,227.0,385.0,60.0
1209,2016-05-23 09:00:15.112500,4,18.0,220.0,383.0,53.0
1210,2016-05-23 09:00:15.125000,4,65477.0,216.0,384.0,69.0
1211,2016-05-23 09:00:15.137500,4,65512.0,217.0,379.0,85.0
1212,2016-05-23 09:00:15.150000,4,65534.0,212.0,383.0,71.0
1213,2016-05-23 09:00:15.162500,4,65519.0,206.0,380.0,66.0
1214,2016-05-23 09:00:15.175000,4,65486.0,202.0,374.0,44.0
1215,2016-05-23 09:00:15.187500,4,65494.0,206.0,362.0,66.0
1216,2016-05-23 09:00:15.200000,4,65470.0,208.0,365.0,81.0
1217,2016-05-23 09:00:15.212500,4,65532.0,204.0,367.0,81.0
1218,2016-05-23 09:00:15.225000,4,65497.0,208.0,369.0,60.0
1219,2016-05-23 09:00:15.237500,4,65518.0,272.0,677.0,13559.0
1220,2016-05-23 09:00:15.250000,4,65506.0,181.0,301.0,135.0
1221,2016-05-23 09:00:15.262500,4,65515.0,182.0,287.0,122.0
1222,2016-05-23 09:00:15.275000,4,65516.0,177.0,305.0,84.0
1223,2016-05-23 09:00:15.287500,4,65479.0,168.0,330.0,-12.0
1224,2016-05-23 09:00:15.300000,4,65522.0,180.0,282.0,110.0
1225,2016-05-23 09:00:15.312500,4,65512.0,178.0,273.0,108.0
1226,2016-05-23 09:00:15.325000,4,65470.0,170.0,298.0,75.0
1227,2016-05-23 09:00:15.337500,4,65506.0,169.0,299.0,74.0
1228,2016-05-23 09:00:15.350000,4,65498.0,170.0,290.0,84.0
1229,2016-05-23 09:00:15.362500,4,65524.0,173.0,291.0,87.0
1230,2016-05-23 09:00:15.375000,4,65468.0,167.0,295.0,73.0
1231,2016-05-23 09:00:15.387500,4,65482.0,166.0,297.0,61.0
1232,2016-05-23 09:00:15.400000,4,65521.0,161.0,301.0,48.0
1233,2016-05-23 09:00:15.412500,4,65480.0,154.0,294.0,62.0
1234,2016-05-23 09:00:15.425000,4,4.0,152.0,290.0,57.0
1235,2016-05-23 09:00:15.437500,4,65512.0,150.0,294.0,280.0
1236,2016-05-23 09:00:15.450000,4,65518.0,153.0,328.0,112.0
1237,2016-05-23 09:00:15.462500,4,0.0,138.0,330.0,93.0
1238,2016-05-23 09:00:15.475000,4,65524.0,153.0,275.0,140.0
1239,2016-05-23 09:00:15.487500,4,65510.0,134.0,322.0,102.0
1240,2016-05-23 09:00:15.500000,4,65498.0,139.0,284.0,140.0
1241,2016-05-23 09:00:15.512500,4,65472.0,148.0,280.0,156.0
1242,2016-05-23 09:00:15.525000,4,2.0,149.0,265.0,131.0
1243,2016-05-23 09:00:15.537500,4,13.0,151.0,262.0,125.0
1244,2016-05-23 09:00:15.550000,4,65502.0,153.0,263.0,115.0
1245,2016-05-23 09:00:15.562500,4,28.0,148.0,271.0,66.0
1246,2016-05-23 09:00:15.575000,4,65516.0,153.0,262.0,86.0
1247,2016-05-23 09:00:15.587500,4,65512.0,156.0,258.0,82.0
1248,2016-05-23 09:00:15.600000,4,65506.0,154.0,255.0,68.0
1249,2016-05-23 09:00:15.612500,4,65481.0,147.0,257.0,51.0
1250,2016-05-23 09:00:15.625000,4,65488.0,146.0,254.0,79.0
1251,2016-05-23 09:00:15.637500,4,65496.0,148.0,242.0,80.0
1252,2016-05-23 09:00:15.650000,4,65526.0,145.0,240.0,78.0
1253,2016-05-23 09:00:15.662500,4,65485.0,136.0,240.0,80.0
1254,2016-05-23 09:00:15.675000,4,65492.0,135.0,232.0,65.0
1255,2016-05-23 09:00:15.687500,4,65503.0,132.0,228.0,71.0
1256,2016-05-23 09:00:15.700000,4,65517.0,138.0,221.0,101.0
1257,2016-05-23 09:00:15.712500,4,65524.0,132.0,223.0,86.0
1258,2016-05-23 09:00:15.725000,4,65493.0,132.0,229.0,79.0
1259,2016-05-23 09:00:15.737500,4,65484.0,134.0,223.0,75.0
1260,2016-05-23 09:00:15.750000,4,37.0,124.0,219.0,126.0
1261,2016-05-23 09:00:15.762500,4,65488.0,119.0,248.0,71.0
1262,2016-05-23 09:00:15.775000,4,65493.0,118.0,243.0,89.0
1263,2016-05-23 09:00:15.787500,4,65492.0,130.0,218.0,104.0
1264,2016-05-23 09:00:15.800000,4,65525.0,121.0,234.0,82.0
1265,2016-05-23 09:00:15.812500,4,50.0,118.0,233.0,67.0
1266,2016-05-23 09:00:15.825000,4,65501.0,122.0,221.0,82.0
1267,2016-05-23 09:00:15.837500,4,65504.0,126.0,215.0,91.0
1268,2016-05-23 09:00:15.850000,4,65517.0,121.0,216.0,94.0
1269,2016-05-23 09:00:15.862500,4,12.0,117.0,223.0,81.0
1270,2016-05-23 09:00:15.875000,4,65471.0,113.0,223.0,77.0
1271,2016-05-23 09:00:15.887500,4,65500.0,115.0,220.0,69.0
1272,2016-05-23 09:00:15.900000,4,65489.0,114.0,209.0,75.0
1273,2016-05-23 09:00:15.912500,4,65458.0,114.0,208.0,70.0
1274,2016-05-23 09:00:15.925000,4,65472.0,114.0,209.0,64.0
1275,2016-05-23 09:00:15.937500,4,65510.0,116.0,202.0,60.0
1276,2016-05-23 09:00:15.950000,4,65486.0,117.0,194.0,61.0
1277,2016-05-23 09:00:15.962500,4,65444.0,115.0,186.0,66.0
1278,2016-05-23 09:00:15.975000,4,65495.0,114.0,188.0,69.0
1279,2016-05-23 09:00:15.987500,4,65531.0,111.0,189.0,76.0
1280,2016-05-23 09:00:16,4,65451.0,107.0,190.0,83.0
1281,2016-05-23 09:00:16.012500,4,65498.0,108.0,182.0,88.0
1282,2016-05-23 09:00:16.025000,4,65520.0,114.0,181.0,100.0
1283,2016-05-23 09:00:16.037500,4,3.0,110.0,180.0,87.0
1284,2016-05-23 09:00:16.050000,4,4.0,109.0,179.0,80.0
1285,2016-05-23 09:00:16.062500,4,65531.0,111.0,180.0,71.0
1286,2016-05-23 09:00:16.075000,4,65503.0,102.0,175.0,67.0
1287,2016-05-23 09:00:16.087500,4,65528.0,100.0,170.0,74.0
1288,2016-05-23 09:00:16.100000,4,65461.0,98.0,167.0,73.0
1289,2016-05-23 09:00:16.112500,4,65487.0,95.0,174.0,70.0
1290,2016-05-23 09:00:16.125000,4,65531.0,97.0,182.0,78.0
1291,2016-05-23 09:00:16.137500,4,1.0,99.0,171.0,81.0
1292,2016-05-23 09:00:16.150000,4,65513.0,95.0,175.0,86.0
1293,2016-05-23 09:00:16.162500,4,65476.0,-18152.0,-8342.0,-5788.0
1294,2016-05-23 09:00:16.175000,4,30.0,97.0,152.0,85.0
1295,2016-05-23 09:00:16.187500,4,1.0,91.0,148.0,85.0
1296,2016-05-23 09:00:16.200000,4,6.0,95.0,149.0,84.0
1297,2016-05-23 09:00:16.212500,4,65484.0,94.0,147.0,76.0
1298,2016-05-23 09:00:16.225000,4,65511.0,83.0,144.0,75.0
1299,2016-05-23 09:00:16.237500,4,65449.0,76.0,147.0,84.0
1300,2016-05-23 09:00:16.250000,4,65520.0,75.0,150.0,81.0
1301,2016-05-23 09:00:16.262500,4,65502.0,82.0,148.0,86.0
1302,2016-05-23 09:00:16.275000,4,4.0,88.0,145.0,86.0
1303,2016-05-23 09:00:16.287500,4,65513.0,88.0,144.0,76.0
1304,2016-05-23 09:00:16.300000,4,65466.0,83.0,146.0,85.0
1305,2016-05-23 09:00:16.312500,4,65492.0,81.0,144.0,87.0
1306,2016-05-23 09:00:16.325000,4,65509.0,81.0,143.0,78.0
1307,2016-05-23 09:00:16.337500,4,65528.0,79.0,142.0,68.0
1308,2016-05-23 09:00:16.350000,4,65493.0,82.0,143.0,66.0
1309,2016-05-23 09:00:16.362500,4,65476.0,77.0,146.0,68.0
1310,2016-05-23 09:00:16.375000,4,65487.0,77.0,143.0,69.0
1311,2016-05-23 09:00:16.387500,4,65522.0,71.0,134.0,72.0
1312,2016-05-23 09:00:16.400000,4,65527.0,68.0,131.0,59.0
1313,2016-05-23 09:00:16.412500,4,65508.0,71.0,130.0,61.0
1314,2016-05-23 09:00:16.425000,4,65517.0,65.0,128.0,73.0
1315,2016-05-23 09:00:16.437500,4,10.0,68.0,128.0,76.0
1316,2016-05-23 09:00:16.450000,4,65453.0,77.0,130.0,85.0
1317,2016-05-23 09:00:16.462500,4,65532.0,74.0,130.0,77.0
1318,2016-05-23 09:00:16.475000,4,65478.0,76.0,131.0,88.0
1319,2016-05-23 09:00:16.487500,4,65477.0,76.0,129.0,89.0
1320,2016-05-23 09:00:16.500000,4,65462.0,73.0,119.0,84.0
1321,2016-05-23 09:00:16.512500,4,65450.0,72.0,120.0,82.0
1322,2016-05-23 09:00:16.525000,4,32.0,72.0,121.0,79.0
1323,2016-05-23 09:00:16.537500,4,65475.0,77.0,122.0,80.0
1324,2016-05-23 09:00:16.550000,4,65530.0,73.0,117.0,80.0
1325,2016-05-23 09:00:16.562500,4,65529.0,72.0,115.0,79.0
1326,2016-05-23 09:00:16.575000,4,65454.0,74.0,115.0,77.0
1327,2016-05-23 09:00:16.587500,4,65508.0,68.0,108.0,74.0
1328,2016-05-23 09:00:16.600000,4,16.0,70.0,107.0,72.0
1329,2016-05-23 09:00:16.612500,4,0.0,71.0,106.0,67.0
1330,2016-05-23 09:00:16.625000,4,65500.0,66.0,107.0,72.0
1331,2016-05-23 09:00:16.637500,4,65515.0,67.0,105.0,80.0
1332,2016-05-23 09:00:16.650000,4,65487.0,62.0,111.0,77.0
1333,2016-05-23 09:00:16.662500,4,65512.0,54.0,97.0,76.0
1334,2016-05-23 09:00:16.675000,4,65523.0,58.0,95.0,71.0
1335,2016-05-23 09:00:16.687500,4,65500.0,58.0,97.0,73.0
1336,2016-05-23 09:00:16.700000,4,65485.0,58.0,98.0,69.0
1337,2016-05-23 09:00:16.712500,4,65516.0,55.0,96.0,66.0
1338,2016-05-23 09:00:16.725000,4,65502.0,56.0,86.0,69.0
1339,2016-05-23 09:00:16.737500,4,0.0,49.0,94.0,64.0
1340,2016-05-23 09:00:16.750000,4,65494.0,50.0,93.0,75.0
1341,2016-05-23 09:00:16.762500,4,65491.0,54.0,101.0,72.0
1342,2016-05-23 09:00:16.775000,4,65479.0,56.0,101.0,77.0
1343,2016-05-23 09:00:16.787500,4,65497.0,56.0,93.0,84.0
1344,2016-05-23 09:00:16.800000,4,65493.0,57.0,97.0,85.0
1345,2016-05-23 09:00:16.812500,4,65479.0,60.0,96.0,96.0
1346,2016-05-23 09:00:16.825000,4,65532.0,54.0,94.0,87.0
1347,2016-05-23 09:00:16.837500,4,65529.0,55.0,90.0,77.0
1348,2016-05-23 09:00:16.850000,4,65535.0,59.0,82.0,67.0
1349,2016-05-23 09:00:16.862500,4,65511.0,61.0,85.0,75.0
1350,2016-05-23 09:00:16.875000,4,65527.0,59.0,88.0,67.0
1351,2016-05-23 09:00:16.887500,4,65512.0,57.0,88.0,68.0
1352,2016-05-23 09:00:16.900000,4,65507.0,51.0,85.0,78.0
1353,2016-05-23 09:00:16.912500,4,65503.0,54.0,81.0,80.0
1354,2016-05-23 09:00:16.925000,4,65525.0,61.0,80.0,76.0
1355,2016-05-23 09:00:16.937500,4,65480.0,55.0,79.0,76.0
1356,2016-05-23 09:00:16.950000,4,65487.0,53.0,80.0,72.0
1357,2016-05-23 09:00:16.962500,4,65484.0,46.0,79.0,74.0
1358,2016-05-23 09:00:16.975000,4,65465.0,47.0,78.0,69.0
1359,2016-05-23 09:00:16.987500,4,65485.0,55.0,80.0,76.0
1360,2016-05-23 09:00:17,4,65501.0,49.0,79.0,75.0
1361,2016-05-23 09:00:17.012500,4,65529.0,47.0,71.0,80.0
1362,2016-05-23 09:00:17.025000,4,65511.0,47.0,70.0,79.0
1363,2016-05-23 09:00:17.037500,4,65473.0,44.0,74.0,80.0
1364,2016-05-23 09:00:17.050000,4,26.0,48.0,63.0,83.0
1365,2016-05-23 09:00:17.062500,4,28.0,41.0,63.0,86.0
1366,2016-05-23 09:00:17.075000,4,8.0,44.0,60.0,88.0
1367,2016-05-23 09:00:17.087500,4,65519.0,47.0,57.0,97.0
1368,2016-05-23 09:00:17.100000,4,38.0,46.0,61.0,91.0
1369,2016-05-23 09:00:17.112500,4,65275.0,44.0,54.0,85.0
1370,2016-05-23 09:00:17.125000,4,64647.0,41.0,56.0,77.0
1371,2016-05-23 09:00:17.137500,4,64257.0,44.0,59.0,72.0
1372,2016-05-23 09:00:17.150000,4,372.0,40.0,51.0,81.0
1373,2016-05-23 09:00:17.162500,4,65456.0,40.0,57.0,76.0
1374,2016-05-23 09:00:17.175000,4,65370.0,40.0,54.0,82.0
1375,2016-05-23 09:00:17.187500,4,322.0,39.0,55.0,80.0
1376,2016-05-23 09:00:17.200000,4,150.0,35.0,50.0,82.0
1377,2016-05-23 09:00:17.212500,4,195.0,30.0,44.0,78.0
1378,2016-05-23 09:00:17.225000,4,44.0,31.0,54.0,74.0
1379,2016-05-23 09:00:17.237500,4,286.0,29.0,53.0,75.0
1380,2016-05-23 09:00:17.250000,4,267.0,30.0,51.0,81.0
1381,2016-05-23 09:00:17.262500,4,69.0,61.0,45.0,-27.0
1382,2016-05-23 09:00:17.275000,4,153.0,-35.0,131.0,89.0
1383,2016-05-23 09:00:17.287500,4,77.0,47.0,38.0,122.0
1384,2016-05-23 09:00:17.300000,4,285.0,44.0,72.0,107.0
1385,2016-05-23 09:00:17.312500,4,298.0,11.0,78.0,55.0
1386,2016-05-23 09:00:17.325000,4,176.0,27.0,65.0,77.0
1387,2016-05-23 09:00:17.337500,4,317.0,31.0,54.0,78.0
1388,2016-05-23 09:00:17.350000,4,324.0,30.0,59.0,63.0
1389,2016-05-23 09:00:17.362500,4,370.0,5483.0,-31109.0,-5863.0
1390,2016-05-23 09:00:17.375000,4,300.0,-124.0,-3230.0,501.0
1391,2016-05-23 09:00:17.387500,4,261.0,-490.0,-4110.0,872.0
1392,2016-05-23 09:00:17.400000,4,245.0,-1394.0,-4565.0,2108.0
1393,2016-05-23 09:00:17.412500,4,97.0,-3140.0,-4331.0,3390.0
1394,2016-05-23 09:00:17.425000,4,141.0,-4964.0,-3707.0,4519.0
1395,2016-05-23 09:00:17.437500,4,167.0,-6131.0,-3437.0,5486.0
1396,2016-05-23 09:00:17.450000,4,34.0,-6429.0,-3817.0,6195.0
1397,2016-05-23 09:00:17.462500,4,45.0,-5923.0,-4562.0,6593.0
1398,2016-05-23 09:00:17.475000,4,211.0,-5074.0,-5293.0,6671.0
1399,2016-05-23 09:00:17.487500,4,178.0,-4118.0,-5763.0,6366.0
1400,2016-05-23 09:00:17.500000,4,121.0,-3145.0,-6260.0,5879.0
1401,2016-05-23 09:00:17.512500,4,183.0,-2037.0,-6711.0,4844.0
1402,2016-05-23 09:00:17.525000,4,180.0,-870.0,-7043.0,3495.0
1403,2016-05-23 09:00:17.537500,4,212.0,29.0,-7273.0,2254.0
1404,2016-05-23 09:00:17.550000,4,65478.0,615.0,-7327.0,1239.0
1405,2016-05-23 09:00:17.562500,4,536.0,1071.0,-6992.0,743.0
1406,2016-05-23 09:00:17.575000,4,65034.0,1686.0,-6283.0,850.0
1407,2016-05-23 09:00:17.587500,4,65075.0,1239.0,-4725.0,-743.0
1408,2016-05-23 09:00:17.600000,4,65317.0,1923.0,-4207.0,-486.0
1409,2016-05-23 09:00:17.612500,4,281.0,2641.0,-3874.0,-919.0
1410,2016-05-23 09:00:17.625000,4,150.0,3095.0,-3205.0,-1573.0
1411,2016-05-23 09:00:17.637500,4,139.0,-8906.0,-906.0,22710.0
1412,2016-05-23 09:00:17.650000,4,177.0,945.0,6854.0,-2957.0
1413,2016-05-23 09:00:17.662500,4,65286.0,1016.0,6530.0,-2495.0
1414,2016-05-23 09:00:17.675000,4,65239.0,979.0,6182.0,-1693.0
1415,2016-05-23 09:00:17.687500,4,281.0,894.0,5626.0,-671.0
1416,2016-05-23 09:00:17.700000,4,231.0,761.0,4868.0,257.0
1417,2016-05-23 09:00:17.712500,4,157.0,637.0,4136.0,887.0
1418,2016-05-23 09:00:17.725000,4,97.0,583.0,3563.0,1288.0
1419,2016-05-23 09:00:17.737500,4,65526.0,492.0,3093.0,1596.0
1420,2016-05-23 09:00:17.750000,4,65511.0,339.0,2820.0,1727.0
1421,2016-05-23 09:00:17.762500,4,96.0,318.0,2515.0,1592.0
1422,2016-05-23 09:00:17.775000,4,60.0,337.0,2307.0,1382.0
1423,2016-05-23 09:00:17.787500,4,32.0,1142.0,1400.0,2521.0
1424,2016-05-23 09:00:17.800000,4,7.0,38.0,1404.0,1165.0
1425,2016-05-23 09:00:17.812500,4,71.0,164.0,418.0,1699.0
1426,2016-05-23 09:00:17.825000,4,21.0,454.0,-11.0,1804.0
1427,2016-05-23 09:00:17.837500,4,65523.0,537.0,-497.0,1564.0
1428,2016-05-23 09:00:17.850000,4,59.0,465.0,-775.0,1376.0
1429,2016-05-23 09:00:17.862500,4,37.0,485.0,-1026.0,1783.0
1430,2016-05-23 09:00:17.875000,4,41.0,492.0,-1214.0,1611.0
1431,2016-05-23 09:00:17.887500,4,87.0,-1443.0,-1622.0,-2504.0
1432,2016-05-23 09:00:17.900000,4,110.0,-409.0,-717.0,321.0
1433,2016-05-23 09:00:17.912500,4,75.0,-540.0,-446.0,434.0
1434,2016-05-23 09:00:17.925000,4,51.0,-574.0,-422.0,532.0
1435,2016-05-23 09:00:17.937500,4,38.0,-633.0,-314.0,724.0
1436,2016-05-23 09:00:17.950000,4,137.0,-285.0,-42.0,847.0
1437,2016-05-23 09:00:17.962500,4,194.0,-633.0,1098.0,92.0
1438,2016-05-23 09:00:17.975000,4,137.0,-183.0,509.0,2.0
1439,2016-05-23 09:00:17.987500,4,164.0,-286.0,-786.0,-129.0
1440,2016-05-23 09:00:18,4,146.0,-1.0,-964.0,-158.0
1441,2016-05-23 09:00:18.012500,4,117.0,82.0,-1361.0,-195.0
1442,2016-05-23 09:00:18.025000,4,94.0,70.0,-1654.0,-93.0
1443,2016-05-23 09:00:18.037500,4,93.0,42.0,-1809.0,-104.0
1444,2016-05-23 09:00:18.050000,4,93.0,96.0,-1620.0,-343.0
1445,2016-05-23 09:00:18.062500,4,93.0,22.0,-1306.0,-306.0
1446,2016-05-23 09:00:18.075000,4,65517.0,-8.0,-1129.0,-204.0
1447,2016-05-23 09:00:18.087500,4,65246.0,-38.0,-977.0,-140.0
1448,2016-05-23 09:00:18.100000,4,65114.0,-79.0,-893.0,-80.0
1449,2016-05-23 09:00:18.112500,4,65098.0,-99.0,-752.0,-92.0
1450,2016-05-23 09:00:18.125000,4,65269.0,764.0,-899.0,163.0
1451,2016-05-23 09:00:18.137500,4,65387.0,758.0,-951.0,311.0
1452,2016-05-23 09:00:18.150000,4,249.0,644.0,-1022.0,494.0
1453,2016-05-23 09:00:18.162500,4,590.0,345.0,-788.0,497.0
1454,2016-05-23 09:00:18.175000,4,1022.0,298.0,-800.0,415.0
1455,2016-05-23 09:00:18.187500,4,1028.0,90.0,-365.0,112.0
1456,2016-05-23 09:00:18.200000,4,65498.0,-384.0,405.0,-1001.0
1457,2016-05-23 09:00:18.212500,4,65075.0,335.0,-1171.0,484.0
1458,2016-05-23 09:00:18.225000,4,65288.0,103.0,-2068.0,-111.0
1459,2016-05-23 09:00:18.237500,4,266.0,-214.0,-1689.0,-448.0
1460,2016-05-23 09:00:18.250000,4,197.0,26.0,-1806.0,-127.0
1461,2016-05-23 09:00:18.262500,4,226.0,61.0,-1645.0,139.0
1462,2016-05-23 09:00:18.275000,4,215.0,-266.0,-1307.0,-12.0
1463,2016-05-23 09:00:18.287500,4,229.0,-267.0,-1206.0,-245.0
1464,2016-05-23 09:00:18.300000,4,118.0,-405.0,-983.0,-419.0
1465,2016-05-23 09:00:18.312500,4,123.0,-848.0,-22752.0,-21943.0
1466,2016-05-23 09:00:18.325000,4,65505.0,-288.0,-865.0,116.0
1467,2016-05-23 09:00:18.337500,4,26.0,-55.0,-926.0,117.0
1468,2016-05-23 09:00:18.350000,4,46.0,-5.0,-922.0,68.0
1469,2016-05-23 09:00:18.362500,4,119.0,-38.0,-854.0,23.0
1470,2016-05-23 09:00:18.375000,4,119.0,-150.0,-869.0,-8.0
1471,2016-05-23 09:00:18.387500,4,126.0,-212.0,-887.0,0.0
1472,2016-05-23 09:00:18.400000,4,180.0,-246.0,-803.0,-31.0
1473,2016-05-23 09:00:18.412500,4,19.0,-287.0,-638.0,-351.0
1474,2016-05-23 09:00:18.425000,4,83.0,-236.0,-575.0,-456.0
1475,2016-05-23 09:00:18.437500,4,65421.0,-182.0,-581.0,-394.0
1476,2016-05-23 09:00:18.450000,4,65486.0,-296.0,-652.0,-119.0
1477,2016-05-23 09:00:18.462500,4,31.0,-440.0,-761.0,144.0
1478,2016-05-23 09:00:18.475000,4,118.0,-523.0,-769.0,239.0
1479,2016-05-23 09:00:18.487500,4,71.0,-661.0,-804.0,179.0
1480,2016-05-23 09:00:18.500000,4,65496.0,-813.0,-772.0,87.0
1481,2016-05-23 09:00:18.512500,4,65526.0,3403.0,-163.0,-12961.0
1482,2016-05-23 09:00:18.525000,4,65512.0,-412.0,-494.0,-569.0
1483,2016-05-23 09:00:18.537500,4,191.0,-333.0,-528.0,-495.0
1484,2016-05-23 09:00:18.550000,4,65498.0,-313.0,-638.0,-373.0
1485,2016-05-23 09:00:18.562500,4,65528.0,-384.0,-768.0,-210.0
1486,2016-05-23 09:00:18.575000,4,65388.0,-400.0,-927.0,-24.0
1487,2016-05-23 09:00:18.587500,4,65155.0,-450.0,-1047.0,165.0
1488,2016-05-23 09:00:18.600000,4,65112.0,-610.0,-1218.0,362.0
1489,2016-05-23 09:00:18.612500,4,315.0,-731.0,-1421.0,524.0
1490,2016-05-23 09:00:18.625000,4,65330.0,-813.0,-1519.0,513.0
1491,2016-05-23 09:00:18.637500,4,65468.0,-643.0,-1566.0,369.0
1492,2016-05-23 09:00:18.650000,4,117.0,-280.0,-1571.0,148.0
1493,2016-05-23 09:00:18.662500,4,11.0,-33.0,-1482.0,-94.0
1494,2016-05-23 09:00:18.675000,4,39.0,13.0,-1371.0,-236.0
1495,2016-05-23 09:00:18.687500,4,84.0,-26672.0,-12290.0,-8179.0
1496,2016-05-23 09:00:18.700000,4,65485.0,-593.0,-987.0,-160.0
1497,2016-05-23 09:00:18.712500,4,108.0,-635.0,-875.0,-362.0
1498,2016-05-23 09:00:18.725000,4,65473.0,-528.0,-879.0,-400.0
1499,2016-05-23 09:00:18.737500,4,65501.0,-528.0,-900.0,-280.0
1500,2016-05-23 09:00:18.750000,4,103.0,-597.0,-850.0,-308.0
1501,2016-05-23 09:00:18.762500,4,74.0,-592.0,-908.0,-288.0
1502,2016-05-23 09:00:18.775000,4,65524.0,-592.0,-981.0,-267.0
1503,2016-05-23 09:00:18.787500,4,67.0,-644.0,-1083.0,-89.0
1504,2016-05-23 09:00:18.800000,4,65502.0,-669.0,-1188.0,78.0
1505,2016-05-23 09:00:18.812500,4,152.0,-541.0,-1318.0,202.0
1506,2016-05-23 09:00:18.825000,4,65503.0,-492.0,-1172.0,-116.0
1507,2016-05-23 09:00:18.837500,4,97.0,-561.0,-982.0,-512.0
1508,2016-05-23 09:00:18.850000,4,84.0,-607.0,-838.0,-888.0
1509,2016-05-23 09:00:18.862500,4,60.0,-410.0,-1183.0,-19.0
1510,2016-05-23 09:00:18.875000,4,31.0,-414.0,-1106.0,-167.0
1511,2016-05-23 09:00:18.887500,4,116.0,-491.0,-1073.0,-282.0
1512,2016-05-23 09:00:18.900000,4,27.0,15.0,-1249.0,-365.0
1513,2016-05-23 09:00:18.912500,4,31.0,-199.0,-1444.0,-2.0
1514,2016-05-23 09:00:18.925000,4,60.0,-363.0,-1607.0,96.0
1515,2016-05-23 09:00:18.937500,4,0.0,-410.0,-1735.0,270.0
1516,2016-05-23 09:00:18.950000,4,109.0,-456.0,-1703.0,259.0
1517,2016-05-23 09:00:18.962500,4,44.0,-410.0,-1632.0,266.0
1518,2016-05-23 09:00:18.975000,4,63.0,-424.0,-1606.0,249.0
1519,2016-05-23 09:00:18.987500,4,43.0,-512.0,-1568.0,191.0
1520,2016-05-23 09:00:19,4,65533.0,-673.0,-1496.0,41.0
1521,2016-05-23 09:00:19.012500,4,58.0,-18420.0,17415.0,-30073.0
1522,2016-05-23 09:00:19.025000,4,25.0,-1649.0,-1540.0,46.0
1523,2016-05-23 09:00:19.037500,4,156.0,-1535.0,-1584.0,63.0
1524,2016-05-23 09:00:19.050000,4,166.0,-845.0,-1344.0,-58.0
1525,2016-05-23 09:00:19.062500,4,65195.0,-348.0,-1077.0,-144.0
1526,2016-05-23 09:00:19.075000,4,607.0,-50.0,-872.0,-217.0
1527,2016-05-23 09:00:19.087500,4,64901.0,46.0,-751.0,-299.0
1528,2016-05-23 09:00:19.100000,4,65245.0,-5.0,-675.0,-440.0
1529,2016-05-23 09:00:19.112500,4,1995.0,-191.0,-641.0,-480.0
1530,2016-05-23 09:00:19.125000,4,984.0,-335.0,-735.0,-379.0
1531,2016-05-23 09:00:19.137500,4,1455.0,-557.0,-908.0,-236.0
1532,2016-05-23 09:00:19.150000,4,64901.0,-1072.0,-1324.0,-241.0
1533,2016-05-23 09:00:19.162500,4,65381.0,13950.0,-24073.0,-16901.0
1534,2016-05-23 09:00:19.175000,4,422.0,-1510.0,-666.0,-805.0
1535,2016-05-23 09:00:19.187500,4,319.0,-1681.0,-835.0,-820.0
1536,2016-05-23 09:00:19.200000,4,258.0,-1479.0,-1102.0,-681.0
1537,2016-05-23 09:00:19.212500,4,65187.0,-1178.0,-1344.0,-455.0
1538,2016-05-23 09:00:19.225000,4,799.0,-1079.0,-1429.0,-450.0
1539,2016-05-23 09:00:19.237500,4,64907.0,-929.0,-1380.0,-305.0
1540,2016-05-23 09:00:19.250000,4,432.0,-878.0,-1515.0,-379.0
1541,2016-05-23 09:00:19.262500,4,20.0,-809.0,-1703.0,-342.0
1542,2016-05-23 09:00:19.275000,4,386.0,-879.0,-1777.0,-555.0
1543,2016-05-23 09:00:19.287500,4,65458.0,-630.0,-1751.0,304.0
1544,2016-05-23 09:00:19.300000,4,212.0,-10948.0,20338.0,-20127.0
1545,2016-05-23 09:00:19.312500,4,139.0,-240.0,-2294.0,-703.0
1546,2016-05-23 09:00:19.325000,4,425.0,-462.0,-1776.0,-680.0
1547,2016-05-23 09:00:19.337500,4,65300.0,-614.0,-1330.0,-653.0
1548,2016-05-23 09:00:19.350000,4,287.0,-811.0,-997.0,-480.0
1549,2016-05-23 09:00:19.362500,4,65447.0,-840.0,-918.0,-156.0
1550,2016-05-23 09:00:19.375000,4,248.0,-644.0,-922.0,202.0
1551,2016-05-23 09:00:19.387500,4,65505.0,-559.0,-838.0,257.0
1552,2016-05-23 09:00:19.400000,4,240.0,-588.0,-717.0,-47.0
1553,2016-05-23 09:00:19.412500,4,242.0,-249.0,-839.0,-125.0
1554,2016-05-23 09:00:19.425000,4,65453.0,-66.0,-1072.0,-174.0
1555,2016-05-23 09:00:19.437500,4,380.0,-127.0,-1282.0,-251.0
1556,2016-05-23 09:00:19.450000,4,426.0,-313.0,-1951.0,189.0
1557,2016-05-23 09:00:19.462500,4,58.0,-392.0,-1843.0,77.0
1558,2016-05-23 09:00:19.475000,4,108.0,-435.0,-1737.0,-42.0
1559,2016-05-23 09:00:19.487500,4,96.0,-576.0,-1623.0,-227.0
1560,2016-05-23 09:00:19.500000,4,86.0,-658.0,-1511.0,-373.0
1561,2016-05-23 09:00:19.512500,4,135.0,-656.0,-1417.0,-481.0
1562,2016-05-23 09:00:19.525000,4,54.0,-621.0,-1350.0,-494.0
1563,2016-05-23 09:00:19.537500,4,46.0,-562.0,-1422.0,-426.0
1564,2016-05-23 09:00:19.550000,4,158.0,-519.0,-1524.0,-319.0
1565,2016-05-23 09:00:19.562500,4,130.0,-452.0,-1575.0,-293.0
1566,2016-05-23 09:00:19.575000,4,127.0,17172.0,-9023.0,-3078.0
1567,2016-05-23 09:00:19.587500,4,37.0,-631.0,-1685.0,-390.0
1568,2016-05-23 09:00:19.600000,4,212.0,-533.0,-1777.0,-342.0
1569,2016-05-23 09:00:19.612500,4,222.0,-500.0,-1830.0,-337.0
1570,2016-05-23 09:00:19.625000,4,2.0,-532.0,-1803.0,-352.0
1571,2016-05-23 09:00:19.637500,4,173.0,-491.0,-1774.0,-329.0
1572,2016-05-23 09:00:19.650000,4,112.0,-469.0,-1794.0,-262.0
1573,2016-05-23 09:00:19.662500,4,114.0,-478.0,-1835.0,-197.0
1574,2016-05-23 09:00:19.675000,4,9.0,-495.0,-1861.0,-181.0
1575,2016-05-23 09:00:19.687500,4,65492.0,-544.0,-1845.0,-201.0
1576,2016-05-23 09:00:19.700000,4,229.0,-699.0,-1753.0,-398.0
1577,2016-05-23 09:00:19.712500,4,75.0,-632.0,-1845.0,-248.0
1578,2016-05-23 09:00:19.725000,4,5.0,-580.0,-1923.0,-111.0
1579,2016-05-23 09:00:19.737500,4,141.0,-568.0,-1936.0,-18.0
1580,2016-05-23 09:00:19.750000,4,138.0,-576.0,-1911.0,22.0
1581,2016-05-23 09:00:19.762500,4,81.0,-553.0,-1843.0,29.0
1582,2016-05-23 09:00:19.775000,4,108.0,-510.0,-1754.0,-79.0
1583,2016-05-23 09:00:19.787500,4,134.0,-468.0,-1615.0,-285.0
1584,2016-05-23 09:00:19.800000,4,171.0,-481.0,-1537.0,-411.0
1585,2016-05-23 09:00:19.812500,4,287.0,-428.0,-1580.0,-449.0
1586,2016-05-23 09:00:19.825000,4,161.0,-368.0,-1603.0,-527.0
1587,2016-05-23 09:00:19.837500,4,65491.0,-163.0,-1913.0,-26.0
1588,2016-05-23 09:00:19.850000,4,251.0,521.0,-1537.0,-103.0
1589,2016-05-23 09:00:19.862500,4,224.0,1015.0,-1210.0,-110.0
1590,2016-05-23 09:00:19.875000,4,94.0,1085.0,-1209.0,-46.0
1591,2016-05-23 09:00:19.887500,4,98.0,526.0,-1562.0,232.0
1592,2016-05-23 09:00:19.900000,4,47.0,-266.0,-1931.0,425.0
1593,2016-05-23 09:00:19.912500,4,93.0,-874.0,-2072.0,351.0
1594,2016-05-23 09:00:19.925000,4,97.0,-1124.0,-1924.0,101.0
1595,2016-05-23 09:00:19.937500,4,86.0,-994.0,-1584.0,-221.0
1596,2016-05-23 09:00:19.950000,4,105.0,-372.0,-1415.0,-489.0
1597,2016-05-23 09:00:19.962500,4,71.0,706.0,-2122.0,-41.0
1598,2016-05-23 09:00:19.975000,4,86.0,633.0,-2334.0,401.0
1599,2016-05-23 09:00:19.987500,4,80.0,764.0,-1783.0,278.0
1600,2016-05-23 09:00:20,4,100.0,545.0,-1530.0,120.0
1601,2016-05-23 09:00:20.012500,4,120.0,483.0,-1603.0,79.0
1602,2016-05-23 09:00:20.025000,4,138.0,-622.0,-1616.0,-310.0
1603,2016-05-23 09:00:20.037500,4,155.0,-2266.0,-1406.0,-768.0
1604,2016-05-23 09:00:20.050000,4,176.0,-2397.0,-1585.0,-885.0
1605,2016-05-23 09:00:20.062500,4,174.0,-1853.0,-1794.0,-834.0
1606,2016-05-23 09:00:20.075000,4,143.0,-1348.0,-2043.0,-392.0
1607,2016-05-23 09:00:20.087500,4,207.0,-851.0,-2028.0,-229.0
1608,2016-05-23 09:00:20.100000,4,193.0,-646.0,-2130.0,123.0
1609,2016-05-23 09:00:20.112500,4,164.0,-731.0,-1899.0,306.0
1610,2016-05-23 09:00:20.125000,4,216.0,-834.0,-2237.0,314.0
1611,2016-05-23 09:00:20.137500,4,153.0,-900.0,-2458.0,296.0
1612,2016-05-23 09:00:20.150000,4,184.0,-1034.0,-2336.0,-186.0
1613,2016-05-23 09:00:20.162500,4,231.0,-1087.0,-2158.0,-550.0
1614,2016-05-23 09:00:20.175000,4,246.0,-848.0,-2146.0,-412.0
1615,2016-05-23 09:00:20.187500,4,266.0,-486.0,-2047.0,-310.0
1616,2016-05-23 09:00:20.200000,4,257.0,-237.0,-1984.0,-239.0
1617,2016-05-23 09:00:20.212500,4,296.0,-247.0,-1878.0,-341.0
1618,2016-05-23 09:00:20.225000,4,303.0,-394.0,-1906.0,-624.0
1619,2016-05-23 09:00:20.237500,4,401.0,-648.0,-1900.0,-357.0
1620,2016-05-23 09:00:20.250000,4,362.0,-680.0,-1813.0,-420.0
1621,2016-05-23 09:00:20.262500,4,374.0,-705.0,-1792.0,-275.0
1622,2016-05-23 09:00:20.275000,4,397.0,-582.0,-1745.0,-230.0
1623,2016-05-23 09:00:20.287500,4,393.0,-455.0,-1544.0,-396.0
1624,2016-05-23 09:00:20.300000,4,338.0,-257.0,-1270.0,-550.0
1625,2016-05-23 09:00:20.312500,4,481.0,-195.0,-1018.0,-640.0
1626,2016-05-23 09:00:20.325000,4,458.0,-179.0,-1064.0,-573.0
1627,2016-05-23 09:00:20.337500,4,429.0,-230.0,-1355.0,-361.0
1628,2016-05-23 09:00:20.350000,4,460.0,-316.0,-1785.0,-121.0
1629,2016-05-23 09:00:20.362500,4,456.0,-404.0,-2042.0,-17.0
1630,2016-05-23 09:00:20.375000,4,380.0,-531.0,-2174.0,-24.0
1631,2016-05-23 09:00:20.387500,4,442.0,-656.0,-2109.0,-140.0
1632,2016-05-23 09:00:20.400000,4,455.0,-712.0,-2038.0,-317.0
1633,2016-05-23 09:00:20.412500,4,511.0,-735.0,-1951.0,-495.0
1634,2016-05-23 09:00:20.425000,4,453.0,-798.0,-1847.0,-748.0
1635,2016-05-23 09:00:20.437500,4,449.0,-940.0,-1840.0,-930.0
1636,2016-05-23 09:00:20.450000,4,466.0,-983.0,-1867.0,-967.0
1637,2016-05-23 09:00:20.462500,4,459.0,-940.0,-1954.0,-814.0
1638,2016-05-23 09:00:20.475000,4,420.0,-810.0,-2053.0,-547.0
1639,2016-05-23 09:00:20.487500,4,402.0,-631.0,-2121.0,-265.0
1640,2016-05-23 09:00:20.500000,4,407.0,-481.0,-2056.0,-64.0
1641,2016-05-23 09:00:20.512500,4,430.0,-436.0,-1950.0,-51.0
1642,2016-05-23 09:00:20.525000,4,351.0,-459.0,-1876.0,-163.0
1643,2016-05-23 09:00:20.537500,4,359.0,-514.0,-1860.0,-320.0
1644,2016-05-23 09:00:20.550000,4,356.0,-633.0,-1890.0,-417.0
1645,2016-05-23 09:00:20.562500,4,345.0,-706.0,-1958.0,-429.0
1646,2016-05-23 09:00:20.575000,4,333.0,-724.0,-1988.0,-374.0
1647,2016-05-23 09:00:20.587500,4,395.0,-735.0,-1951.0,-280.0
1648,2016-05-23 09:00:20.600000,4,402.0,-679.0,-1916.0,-160.0
1649,2016-05-23 09:00:20.612500,4,374.0,-607.0,-1888.0,-61.0
1650,2016-05-23 09:00:20.625000,4,325.0,-591.0,-1867.0,-117.0
1651,2016-05-23 09:00:20.637500,4,327.0,-654.0,-1804.0,-266.0
1652,2016-05-23 09:00:20.650000,4,336.0,-726.0,-1732.0,-381.0
1653,2016-05-23 09:00:20.662500,4,362.0,-785.0,-1698.0,-442.0
1654,2016-05-23 09:00:20.675000,4,314.0,-861.0,-1769.0,-439.0
1655,2016-05-23 09:00:20.687500,4,329.0,-870.0,-1825.0,-364.0
1656,2016-05-23 09:00:20.700000,4,382.0,-818.0,-1870.0,-248.0
1657,2016-05-23 09:00:20.712500,4,333.0,-707.0,-1928.0,-115.0
1658,2016-05-23 09:00:20.725000,4,346.0,-627.0,-1928.0,-97.0
1659,2016-05-23 09:00:20.737500,4,372.0,-615.0,-1831.0,-234.0
1660,2016-05-23 09:00:20.750000,4,365.0,-636.0,-1720.0,-412.0
1661,2016-05-23 09:00:20.762500,4,325.0,-700.0,-1671.0,-484.0
1662,2016-05-23 09:00:20.775000,4,375.0,-738.0,-1675.0,-443.0
1663,2016-05-23 09:00:20.787500,4,338.0,-708.0,-1743.0,-341.0
1664,2016-05-23 09:00:20.800000,4,370.0,-626.0,-1858.0,-176.0
1665,2016-05-23 09:00:20.812500,4,334.0,-512.0,-1944.0,-39.0
1666,2016-05-23 09:00:20.825000,4,346.0,-357.0,-2066.0,60.0
1667,2016-05-23 09:00:20.837500,4,371.0,-341.0,-2058.0,-42.0
1668,2016-05-23 09:00:20.850000,4,412.0,-448.0,-1946.0,-234.0
1669,2016-05-23 09:00:20.862500,4,353.0,-550.0,-1814.0,-394.0
1670,2016-05-23 09:00:20.875000,4,323.0,-623.0,-1719.0,-470.0
1671,2016-05-23 09:00:20.887500,4,391.0,-687.0,-1698.0,-421.0
1672,2016-05-23 09:00:20.900000,4,368.0,-749.0,-1714.0,-362.0
1673,2016-05-23 09:00:20.912500,4,313.0,-879.0,-1726.0,-383.0
1674,2016-05-23 09:00:20.925000,4,313.0,-988.0,-1725.0,-434.0
1675,2016-05-23 09:00:20.937500,4,341.0,-872.0,-1815.0,-354.0
1676,2016-05-23 09:00:20.950000,4,356.0,-596.0,-1904.0,-132.0
1677,2016-05-23 09:00:20.962500,4,395.0,-539.0,-1944.0,-180.0
1678,2016-05-23 09:00:20.975000,4,374.0,-506.0,-1835.0,-395.0
1679,2016-05-23 09:00:20.987500,4,403.0,-677.0,-1735.0,-744.0
1680,2016-05-23 09:00:21,4,397.0,-674.0,-1663.0,-754.0
1681,2016-05-23 09:00:21.012500,4,446.0,-557.0,-1679.0,-562.0
1682,2016-05-23 09:00:21.025000,4,426.0,-487.0,-1741.0,-363.0
1683,2016-05-23 09:00:21.037500,4,410.0,-512.0,-1770.0,-244.0
1684,2016-05-23 09:00:21.050000,4,421.0,-573.0,-1777.0,-174.0
1685,2016-05-23 09:00:21.062500,4,545.0,-631.0,-1816.0,-137.0
1686,2016-05-23 09:00:21.075000,4,509.0,-653.0,-1879.0,-122.0
1687,2016-05-23 09:00:21.087500,4,536.0,-679.0,-1953.0,-121.0
1688,2016-05-23 09:00:21.100000,4,516.0,-761.0,-2005.0,-121.0
1689,2016-05-23 09:00:21.112500,4,576.0,-912.0,-2011.0,-143.0
1690,2016-05-23 09:00:21.125000,4,580.0,-1078.0,-2010.0,-177.0
1691,2016-05-23 09:00:21.137500,4,539.0,-1226.0,-1988.0,-293.0
1692,2016-05-23 09:00:21.150000,4,347.0,-1285.0,-1926.0,-378.0
1693,2016-05-23 09:00:21.162500,4,128.0,-1266.0,-1846.0,-424.0
1694,2016-05-23 09:00:21.175000,4,76.0,-1185.0,-1753.0,-405.0
1695,2016-05-23 09:00:21.187500,4,118.0,-1031.0,-1670.0,-287.0
1696,2016-05-23 09:00:21.200000,4,162.0,-903.0,-1625.0,-166.0
1697,2016-05-23 09:00:21.212500,4,111.0,-872.0,-1558.0,-116.0
1698,2016-05-23 09:00:21.225000,4,127.0,-938.0,-1485.0,-99.0
1699,2016-05-23 09:00:21.237500,4,135.0,-972.0,-1470.0,-219.0
1700,2016-05-23 09:00:21.250000,4,86.0,-1279.0,-1737.0,-414.0
1701,2016-05-23 09:00:21.262500,4,187.0,-1125.0,-1929.0,-470.0
1702,2016-05-23 09:00:21.275000,4,212.0,-1068.0,-1815.0,-420.0
1703,2016-05-23 09:00:21.287500,4,416.0,-1070.0,-1675.0,-477.0
1704,2016-05-23 09:00:21.300000,4,682.0,-1004.0,-1684.0,-476.0
1705,2016-05-23 09:00:21.312500,4,1202.0,-903.0,-2007.0,-43.0
1706,2016-05-23 09:00:21.325000,4,2702.0,-961.0,-2062.0,115.0
1707,2016-05-23 09:00:21.337500,4,6430.0,-986.0,-2082.0,43.0
1708,2016-05-23 09:00:21.350000,4,8067.0,-1031.0,-2046.0,-119.0
1709,2016-05-23 09:00:21.362500,4,6721.0,-956.0,-1928.0,-275.0
1710,2016-05-23 09:00:21.375000,4,5996.0,-801.0,-1626.0,-473.0
1711,2016-05-23 09:00:21.387500,4,4134.0,-679.0,-1551.0,-516.0
1712,2016-05-23 09:00:21.400000,4,1875.0,-862.0,-1619.0,-386.0
1713,2016-05-23 09:00:21.412500,4,1313.0,-973.0,-1865.0,-290.0
1714,2016-05-23 09:00:21.425000,4,781.0,-992.0,-2060.0,-285.0
1715,2016-05-23 09:00:21.437500,4,452.0,-1188.0,-1875.0,-450.0
1716,2016-05-23 09:00:21.450000,4,225.0,-1326.0,-1647.0,-679.0
1717,2016-05-23 09:00:21.462500,4,215.0,-1026.0,-1573.0,-881.0
1718,2016-05-23 09:00:21.475000,4,176.0,-1095.0,-1572.0,-994.0
1719,2016-05-23 09:00:21.487500,4,235.0,-1432.0,-1618.0,-907.0
1720,2016-05-23 09:00:21.500000,4,65518.0,-1528.0,-1841.0,-708.0
1721,2016-05-23 09:00:21.512500,4,65521.0,-1398.0,-2177.0,-453.0
1722,2016-05-23 09:00:21.525000,4,65509.0,-1366.0,-2297.0,-313.0
1723,2016-05-23 09:00:21.537500,4,65513.0,-1241.0,-2301.0,-391.0
1724,2016-05-23 09:00:21.550000,4,65508.0,-1091.0,-2159.0,-593.0
1725,2016-05-23 09:00:21.562500,4,65423.0,-447.0,-1953.0,-984.0
1726,2016-05-23 09:00:21.575000,4,202.0,-894.0,-1491.0,-919.0
1727,2016-05-23 09:00:21.587500,4,151.0,-751.0,-1477.0,-896.0
1728,2016-05-23 09:00:21.600000,4,131.0,-768.0,-1446.0,-925.0
1729,2016-05-23 09:00:21.612500,4,113.0,-911.0,-1555.0,-749.0
1730,2016-05-23 09:00:21.625000,4,191.0,-951.0,-1801.0,-636.0
1731,2016-05-23 09:00:21.637500,4,97.0,-946.0,-1907.0,-539.0
1732,2016-05-23 09:00:21.650000,4,65465.0,-301.0,-1959.0,-419.0
1733,2016-05-23 09:00:21.662500,4,65454.0,-434.0,-1891.0,-176.0
1734,2016-05-23 09:00:21.675000,4,65410.0,-523.0,-1991.0,-145.0
1735,2016-05-23 09:00:21.687500,4,65418.0,-658.0,-1999.0,-187.0
1736,2016-05-23 09:00:21.700000,4,65477.0,-651.0,-2087.0,-199.0
1737,2016-05-23 09:00:21.712500,4,65449.0,-799.0,-2264.0,-221.0
1738,2016-05-23 09:00:21.725000,4,65440.0,-632.0,-2323.0,-115.0
1739,2016-05-23 09:00:21.737500,4,65480.0,-454.0,-2205.0,-108.0
1740,2016-05-23 09:00:21.750000,4,65529.0,-442.0,-2078.0,-207.0
1741,2016-05-23 09:00:21.762500,4,18.0,-1245.0,-2157.0,-276.0
1742,2016-05-23 09:00:21.775000,4,65483.0,-850.0,-1948.0,-519.0
1743,2016-05-23 09:00:21.787500,4,65500.0,-647.0,-1598.0,-635.0
1744,2016-05-23 09:00:21.800000,4,65477.0,-227.0,-1442.0,-487.0
1745,2016-05-23 09:00:21.812500,4,65453.0,18.0,-1470.0,-250.0
1746,2016-05-23 09:00:21.825000,4,65495.0,71.0,-1635.0,-49.0
1747,2016-05-23 09:00:21.837500,4,65408.0,-6.0,-1856.0,127.0
1748,2016-05-23 09:00:21.850000,4,65349.0,-21.0,-2060.0,120.0
1749,2016-05-23 09:00:21.862500,4,65329.0,-111.0,-2212.0,11.0
1750,2016-05-23 09:00:21.875000,4,65406.0,-196.0,-2240.0,-143.0
1751,2016-05-23 09:00:21.887500,4,65408.0,-99.0,-2103.0,-239.0
1752,2016-05-23 09:00:21.900000,4,207.0,-45.0,-1931.0,-325.0
1753,2016-05-23 09:00:21.912500,4,147.0,-208.0,-1779.0,-444.0
1754,2016-05-23 09:00:21.925000,4,160.0,-419.0,-1807.0,-474.0
1755,2016-05-23 09:00:21.937500,4,150.0,-465.0,-2099.0,-251.0
1756,2016-05-23 09:00:21.950000,4,72.0,-474.0,-2381.0,-2.0
1757,2016-05-23 09:00:21.962500,4,46.0,-563.0,-2357.0,23.0
1758,2016-05-23 09:00:21.975000,4,18.0,-616.0,-2166.0,-138.0
1759,2016-05-23 09:00:21.987500,4,65530.0,-617.0,-1971.0,-223.0
1760,2016-05-23 09:00:22,4,41.0,-596.0,-1942.0,-186.0
1761,2016-05-23 09:00:22.012500,4,60.0,-627.0,-1988.0,-188.0
1762,2016-05-23 09:00:22.025000,4,65490.0,-712.0,-1973.0,-253.0
1763,2016-05-23 09:00:22.037500,4,65531.0,-747.0,-1989.0,-229.0
1764,2016-05-23 09:00:22.050000,4,65476.0,-708.0,-2042.0,-99.0
1765,2016-05-23 09:00:22.062500,4,65497.0,-626.0,-2122.0,81.0
1766,2016-05-23 09:00:22.075000,4,65508.0,19202.0,537.0,-20375.0
1767,2016-05-23 09:00:22.087500,4,72.0,-559.0,-1887.0,-386.0
1768,2016-05-23 09:00:22.100000,4,64.0,-573.0,-1846.0,-368.0
1769,2016-05-23 09:00:22.112500,4,113.0,-565.0,-1824.0,-306.0
1770,2016-05-23 09:00:22.125000,4,85.0,-475.0,-1899.0,-137.0
1771,2016-05-23 09:00:22.137500,4,19.0,-447.0,-1986.0,11.0
1772,2016-05-23 09:00:22.150000,4,28.0,-449.0,-2056.0,76.0
1773,2016-05-23 09:00:22.162500,4,25.0,-499.0,-2012.0,-49.0
1774,2016-05-23 09:00:22.175000,4,29.0,-614.0,-1850.0,-289.0
1775,2016-05-23 09:00:22.187500,4,14.0,-672.0,-1758.0,-405.0
1776,2016-05-23 09:00:22.200000,4,2.0,-639.0,-1780.0,-382.0
1777,2016-05-23 09:00:22.212500,4,29.0,-633.0,-1810.0,-371.0
1778,2016-05-23 09:00:22.225000,4,53.0,-627.0,-1835.0,-330.0
1779,2016-05-23 09:00:22.237500,4,28.0,-618.0,-1821.0,-294.0
1780,2016-05-23 09:00:22.250000,4,23.0,-629.0,-1805.0,-337.0
1781,2016-05-23 09:00:22.262500,4,11.0,-666.0,-1828.0,-360.0
1782,2016-05-23 09:00:22.275000,4,2.0,-681.0,-1864.0,-391.0
1783,2016-05-23 09:00:22.287500,4,4.0,-772.0,-1877.0,-470.0
1784,2016-05-23 09:00:22.300000,4,42.0,-856.0,-1895.0,-516.0
1785,2016-05-23 09:00:22.312500,4,62.0,-904.0,-1890.0,-540.0
1786,2016-05-23 09:00:22.325000,4,85.0,-962.0,-1830.0,-555.0
1787,2016-05-23 09:00:22.337500,4,65459.0,-1017.0,-1777.0,-534.0
1788,2016-05-23 09:00:22.350000,4,65470.0,-1085.0,-1746.0,-499.0
1789,2016-05-23 09:00:22.362500,4,139.0,-1157.0,-1685.0,-498.0
1790,2016-05-23 09:00:22.375000,4,203.0,-1213.0,-1560.0,-525.0
1791,2016-05-23 09:00:22.387500,4,65406.0,-1223.0,-1447.0,-546.0
1792,2016-05-23 09:00:22.400000,4,65365.0,-1154.0,-1405.0,-523.0
1793,2016-05-23 09:00:22.412500,4,223.0,-1073.0,-1435.0,-380.0
1794,2016-05-23 09:00:22.425000,4,201.0,-974.0,-1545.0,-254.0
1795,2016-05-23 09:00:22.437500,4,79.0,-890.0,-1710.0,-127.0
1796,2016-05-23 09:00:22.450000,4,65398.0,-821.0,-1842.0,-75.0
1797,2016-05-23 09:00:22.462500,4,64.0,-787.0,-1878.0,-119.0
1798,2016-05-23 09:00:22.475000,4,98.0,-796.0,-1814.0,-212.0
1799,2016-05-23 09:00:22.487500,4,65392.0,-887.0,-1753.0,-312.0
1800,2016-05-23 09:00:22.500000,4,65468.0,-920.0,-1684.0,-430.0
1801,2016-05-23 09:00:22.512500,4,17.0,-889.0,-1538.0,-556.0
1802,2016-05-23 09:00:22.525000,4,65502.0,-861.0,-1360.0,-541.0
1803,2016-05-23 09:00:22.537500,4,52.0,-763.0,-1451.0,-315.0
1804,2016-05-23 09:00:22.550000,4,65428.0,-739.0,-1572.0,-147.0
1805,2016-05-23 09:00:22.562500,4,65419.0,-808.0,-1673.0,-94.0
1806,2016-05-23 09:00:22.575000,4,61.0,-876.0,-1814.0,-64.0
1807,2016-05-23 09:00:22.587500,4,65512.0,-892.0,-1905.0,-37.0
1808,2016-05-23 09:00:22.600000,4,65420.0,-1081.0,-1883.0,-82.0
1809,2016-05-23 09:00:22.612500,4,65507.0,-1182.0,-1771.0,-185.0
1810,2016-05-23 09:00:22.625000,4,65512.0,-1022.0,-1716.0,-242.0
1811,2016-05-23 09:00:22.637500,4,65518.0,-884.0,-1642.0,-359.0
1812,2016-05-23 09:00:22.650000,4,65474.0,-844.0,-1581.0,-411.0
1813,2016-05-23 09:00:22.662500,4,65412.0,-790.0,-1641.0,-423.0
1814,2016-05-23 09:00:22.675000,4,65506.0,-757.0,-1720.0,-337.0
1815,2016-05-23 09:00:22.687500,4,65505.0,-708.0,-1786.0,-274.0
1816,2016-05-23 09:00:22.700000,4,65416.0,-628.0,-1883.0,-123.0
1817,2016-05-23 09:00:22.712500,4,65424.0,-562.0,-1914.0,-19.0
1818,2016-05-23 09:00:22.725000,4,65520.0,-465.0,-1917.0,53.0
1819,2016-05-23 09:00:22.737500,4,65452.0,-402.0,-1898.0,96.0
1820,2016-05-23 09:00:22.750000,4,65436.0,-393.0,-1866.0,95.0
1821,2016-05-23 09:00:22.762500,4,56.0,-451.0,-1822.0,9.0
1822,2016-05-23 09:00:22.775000,4,33.0,-546.0,-1773.0,-115.0
1823,2016-05-23 09:00:22.787500,4,65471.0,-645.0,-1731.0,-211.0
1824,2016-05-23 09:00:22.800000,4,65493.0,31827.0,2324.0,25073.0
1825,2016-05-23 09:00:22.812500,4,65522.0,-553.0,-1548.0,-297.0
1826,2016-05-23 09:00:22.825000,4,65393.0,-578.0,-1437.0,-442.0
1827,2016-05-23 09:00:22.837500,4,65403.0,-744.0,-1344.0,-710.0
1828,2016-05-23 09:00:22.850000,4,65520.0,-800.0,-1461.0,-744.0
1829,2016-05-23 09:00:22.862500,4,13.0,-729.0,-1589.0,-642.0
1830,2016-05-23 09:00:22.875000,4,65447.0,-281.0,-1773.0,-204.0
1831,2016-05-23 09:00:22.887500,4,145.0,-303.0,-1839.0,-147.0
1832,2016-05-23 09:00:22.900000,4,65361.0,-302.0,-1915.0,-182.0
1833,2016-05-23 09:00:22.912500,4,52.0,-407.0,-1935.0,-270.0
1834,2016-05-23 09:00:22.925000,4,1.0,-498.0,-1833.0,-360.0
1835,2016-05-23 09:00:22.937500,4,65468.0,-572.0,-1704.0,-424.0
1836,2016-05-23 09:00:22.950000,4,65469.0,-554.0,-1869.0,-617.0
1837,2016-05-23 09:00:22.962500,4,65491.0,-569.0,-2215.0,-347.0
1838,2016-05-23 09:00:22.975000,4,65426.0,-645.0,-1843.0,-366.0
1839,2016-05-23 09:00:22.987500,4,128.0,-344.0,-1769.0,-351.0
1840,2016-05-23 09:00:23,4,65369.0,-163.0,-1691.0,-145.0
1841,2016-05-23 09:00:23.012500,4,2.0,-27.0,-1727.0,10.0
1842,2016-05-23 09:00:23.025000,4,65393.0,-98.0,-1841.0,13.0
1843,2016-05-23 09:00:23.037500,4,173.0,-229.0,-1967.0,-92.0
1844,2016-05-23 09:00:23.050000,4,65224.0,-500.0,-2083.0,-326.0
1845,2016-05-23 09:00:23.062500,4,272.0,-705.0,-2075.0,-394.0
1846,2016-05-23 09:00:23.075000,4,65468.0,-736.0,-2024.0,-320.0
1847,2016-05-23 09:00:23.087500,4,65529.0,-637.0,-1977.0,-235.0
1848,2016-05-23 09:00:23.100000,4,65503.0,-476.0,-1965.0,-182.0
1849,2016-05-23 09:00:23.112500,4,67.0,-312.0,-2004.0,-186.0
1850,2016-05-23 09:00:23.125000,4,36.0,-207.0,-2164.0,-65.0
1851,2016-05-23 09:00:23.137500,4,291.0,-188.0,-2261.0,78.0
1852,2016-05-23 09:00:23.150000,4,65421.0,-370.0,-2408.0,425.0
1853,2016-05-23 09:00:23.162500,4,173.0,-810.0,-2005.0,460.0
1854,2016-05-23 09:00:23.175000,4,65368.0,-700.0,-1678.0,345.0
1855,2016-05-23 09:00:23.187500,4,227.0,-444.0,-1569.0,310.0
1856,2016-05-23 09:00:23.200000,4,65274.0,-435.0,-1317.0,316.0
1857,2016-05-23 09:00:23.212500,4,65403.0,-287.0,-747.0,315.0
1858,2016-05-23 09:00:23.225000,4,48.0,-858.0,-517.0,-70.0
1859,2016-05-23 09:00:23.237500,4,125.0,-861.0,-528.0,-458.0
1860,2016-05-23 09:00:23.250000,4,65257.0,6990.0,4712.0,20761.0
1861,2016-05-23 09:00:23.262500,4,414.0,-161.0,-3590.0,532.0
1862,2016-05-23 09:00:23.275000,4,17.0,-254.0,-3336.0,821.0
1863,2016-05-23 09:00:23.287500,4,147.0,-464.0,-3091.0,811.0
1864,2016-05-23 09:00:23.300000,4,65477.0,-740.0,-2981.0,498.0
1865,2016-05-23 09:00:23.312500,4,65333.0,-971.0,-2995.0,-3.0
1866,2016-05-23 09:00:23.325000,4,418.0,-1063.0,-3083.0,-507.0
1867,2016-05-23 09:00:23.337500,4,376.0,-824.0,-3208.0,-582.0
1868,2016-05-23 09:00:23.350000,4,65333.0,-411.0,-3363.0,-209.0
1869,2016-05-23 09:00:23.362500,4,65425.0,-36.0,-3454.0,171.0
1870,2016-05-23 09:00:23.375000,4,134.0,136.0,-3340.0,271.0
1871,2016-05-23 09:00:23.387500,4,65433.0,193.0,-3107.0,52.0
1872,2016-05-23 09:00:23.400000,4,65373.0,229.0,-2948.0,-281.0
1873,2016-05-23 09:00:23.412500,4,402.0,267.0,-2977.0,-384.0
1874,2016-05-23 09:00:23.425000,4,65013.0,251.0,-2973.0,-791.0
1875,2016-05-23 09:00:23.437500,4,64983.0,369.0,-3311.0,-793.0
1876,2016-05-23 09:00:23.450000,4,65128.0,256.0,-3072.0,-1024.0
1877,2016-05-23 09:00:23.462500,4,419.0,-17.0,-2493.0,-933.0
1878,2016-05-23 09:00:23.475000,4,65299.0,-455.0,-1775.0,-678.0
1879,2016-05-23 09:00:23.487500,4,65359.0,-704.0,-1237.0,-245.0
1880,2016-05-23 09:00:23.500000,4,285.0,-504.0,-1239.0,100.0
1881,2016-05-23 09:00:23.512500,4,194.0,-156.0,-1637.0,170.0
1882,2016-05-23 09:00:23.525000,4,266.0,202.0,-2223.0,-23.0
1883,2016-05-23 09:00:23.537500,4,65478.0,523.0,-2813.0,-487.0
1884,2016-05-23 09:00:23.550000,4,161.0,694.0,-3324.0,-1071.0
1885,2016-05-23 09:00:23.562500,4,144.0,698.0,-3617.0,-1589.0
1886,2016-05-23 09:00:23.575000,4,39.0,-24449.0,-15316.0,31928.0
1887,2016-05-23 09:00:23.587500,4,117.0,-2442.0,1374.0,739.0
1888,2016-05-23 09:00:23.600000,4,65424.0,-2471.0,1723.0,1489.0
1889,2016-05-23 09:00:23.612500,4,65244.0,-2977.0,2079.0,1950.0
1890,2016-05-23 09:00:23.625000,4,693.0,-3576.0,2335.0,1911.0
1891,2016-05-23 09:00:23.637500,4,1001.0,-3553.0,2107.0,1661.0
1892,2016-05-23 09:00:23.650000,4,1395.0,-3275.0,1637.0,1502.0
1893,2016-05-23 09:00:23.662500,4,1517.0,-3113.0,1258.0,1227.0
1894,2016-05-23 09:00:23.675000,4,63979.0,-3170.0,999.0,700.0
1895,2016-05-23 09:00:23.687500,4,63720.0,-3205.0,705.0,58.0
1896,2016-05-23 09:00:23.700000,4,1778.0,-2955.0,325.0,-399.0
1897,2016-05-23 09:00:23.712500,4,905.0,-2506.0,-62.0,-670.0
1898,2016-05-23 09:00:23.725000,4,65371.0,-2254.0,-410.0,-1107.0
1899,2016-05-23 09:00:23.737500,4,64888.0,-2093.0,-1037.0,-1942.0
1900,2016-05-23 09:00:23.750000,4,806.0,-1991.0,-2086.0,-2650.0
1901,2016-05-23 09:00:23.762500,4,634.0,-1786.0,-3109.0,-3454.0
1902,2016-05-23 09:00:23.775000,4,65514.0,-1293.0,-3039.0,-3559.0
1903,2016-05-23 09:00:23.787500,4,200.0,-1334.0,-2869.0,-3528.0
1904,2016-05-23 09:00:23.800000,4,64565.0,-1151.0,-2493.0,-2819.0
1905,2016-05-23 09:00:23.812500,4,934.0,-844.0,-2582.0,-2088.0
1906,2016-05-23 09:00:23.825000,4,600.0,-431.0,-2922.0,-1365.0
1907,2016-05-23 09:00:23.837500,4,392.0,7.0,-2578.0,877.0
1908,2016-05-23 09:00:23.850000,4,65358.0,-48.0,-2834.0,869.0
1909,2016-05-23 09:00:23.862500,4,65516.0,6166.0,-14800.0,-32186.0
1910,2016-05-23 09:00:23.875000,4,65307.0,-518.0,-2423.0,-156.0
1911,2016-05-23 09:00:23.887500,4,504.0,-346.0,-2492.0,28.0
1912,2016-05-23 09:00:23.900000,4,465.0,-325.0,-2528.0,116.0
1913,2016-05-23 09:00:23.912500,4,369.0,-408.0,-2495.0,165.0
1914,2016-05-23 09:00:23.925000,4,65023.0,-668.0,-2408.0,151.0
1915,2016-05-23 09:00:23.937500,4,64948.0,-920.0,-2340.0,-78.0
1916,2016-05-23 09:00:23.950000,4,457.0,-876.0,-2403.0,-508.0
1917,2016-05-23 09:00:23.962500,4,255.0,-757.0,-2292.0,-313.0
1918,2016-05-23 09:00:23.975000,4,20.0,-857.0,-2099.0,-18.0
1919,2016-05-23 09:00:23.987500,4,65410.0,-881.0,-1894.0,184.0
1920,2016-05-23 09:00:24,4,183.0,-834.0,-1731.0,304.0
1921,2016-05-23 09:00:24.012500,4,204.0,-808.0,-1646.0,216.0
1922,2016-05-23 09:00:24.025000,4,249.0,-846.0,-1608.0,-12.0
1923,2016-05-23 09:00:24.037500,4,338.0,-927.0,-1587.0,-196.0
1924,2016-05-23 09:00:24.050000,4,65183.0,-1000.0,-1596.0,-370.0
1925,2016-05-23 09:00:24.062500,4,255.0,-1016.0,-1578.0,-468.0
1926,2016-05-23 09:00:24.075000,4,136.0,-1005.0,-1505.0,-567.0
1927,2016-05-23 09:00:24.087500,4,440.0,-1066.0,-1416.0,-773.0
1928,2016-05-23 09:00:24.100000,4,502.0,-1058.0,-1259.0,-1029.0
1929,2016-05-23 09:00:24.112500,4,213.0,1456.0,-27883.0,-29488.0
1930,2016-05-23 09:00:24.125000,4,65469.0,1139.0,-382.0,563.0
1931,2016-05-23 09:00:24.137500,4,263.0,837.0,-360.0,465.0
1932,2016-05-23 09:00:24.150000,4,382.0,-1208.0,71.0,-139.0
1933,2016-05-23 09:00:24.162500,4,166.0,-1026.0,-202.0,251.0
1934,2016-05-23 09:00:24.175000,4,226.0,-398.0,-220.0,577.0
1935,2016-05-23 09:00:24.187500,4,296.0,-262.0,-357.0,511.0
1936,2016-05-23 09:00:24.200000,4,333.0,22.0,-632.0,823.0
1937,2016-05-23 09:00:24.212500,4,467.0,-14.0,-775.0,1056.0
1938,2016-05-23 09:00:24.225000,4,553.0,-105.0,-927.0,1251.0
1939,2016-05-23 09:00:24.237500,4,670.0,-19.0,-954.0,1647.0
1940,2016-05-23 09:00:24.250000,4,246.0,-95.0,-961.0,1950.0
1941,2016-05-23 09:00:24.262500,4,54.0,-190.0,-1044.0,2102.0
1942,2016-05-23 09:00:24.275000,4,65321.0,-209.0,-1185.0,2082.0
1943,2016-05-23 09:00:24.287500,4,65299.0,-168.0,-1298.0,2027.0
1944,2016-05-23 09:00:24.300000,4,31.0,-76.0,-1338.0,2034.0
1945,2016-05-23 09:00:24.312500,4,74.0,50.0,-1270.0,2129.0
1946,2016-05-23 09:00:24.325000,4,31.0,446.0,-1091.0,2380.0
1947,2016-05-23 09:00:24.337500,4,65393.0,1032.0,-899.0,2520.0
1948,2016-05-23 09:00:24.350000,4,65361.0,1584.0,-860.0,2661.0
1949,2016-05-23 09:00:24.362500,4,65392.0,-8623.0,6116.0,28406.0
1950,2016-05-23 09:00:24.375000,4,65509.0,1778.0,-562.0,2679.0
1951,2016-05-23 09:00:24.387500,4,183.0,1676.0,-601.0,2093.0
1952,2016-05-23 09:00:24.400000,4,79.0,1692.0,-694.0,1782.0
1953,2016-05-23 09:00:24.412500,4,116.0,1944.0,-987.0,1693.0
1954,2016-05-23 09:00:24.425000,4,60.0,2232.0,-1414.0,1559.0
1955,2016-05-23 09:00:24.437500,4,42.0,2413.0,-1905.0,1271.0
1956,2016-05-23 09:00:24.450000,4,97.0,2557.0,-2549.0,907.0
1957,2016-05-23 09:00:24.462500,4,87.0,2592.0,-3348.0,608.0
1958,2016-05-23 09:00:24.475000,4,56.0,2513.0,-4179.0,351.0
1959,2016-05-23 09:00:24.487500,4,111.0,2381.0,-4930.0,-82.0
1960,2016-05-23 09:00:24.500000,4,115.0,2196.0,-5510.0,-579.0
1961,2016-05-23 09:00:24.512500,4,164.0,1829.0,-5897.0,-1054.0
1962,2016-05-23 09:00:24.525000,4,373.0,1234.0,-6182.0,-1614.0
1963,2016-05-23 09:00:24.537500,4,502.0,389.0,-6265.0,-2269.0
1964,2016-05-23 09:00:24.550000,4,659.0,-543.0,-6143.0,-2948.0
1965,2016-05-23 09:00:24.562500,4,1527.0,-1257.0,-5890.0,-3425.0
1966,2016-05-23 09:00:24.575000,4,3516.0,-6528.0,-5011.0,-3916.0
1967,2016-05-23 09:00:24.587500,4,9060.0,-5573.0,-2688.0,-4509.0
1968,2016-05-23 09:00:24.600000,4,5032.0,-5649.0,-3080.0,-3652.0
1969,2016-05-23 09:00:24.612500,4,3071.0,-3953.0,-3930.0,-3928.0
1970,2016-05-23 09:00:24.625000,4,2928.0,-1780.0,-4415.0,-3813.0
1971,2016-05-23 09:00:24.637500,4,4382.0,2138.0,-2710.0,-4268.0
1972,2016-05-23 09:00:24.650000,4,6214.0,2513.0,-73.0,-3939.0
1973,2016-05-23 09:00:24.662500,4,5782.0,2697.0,1236.0,-3544.0
1974,2016-05-23 09:00:24.675000,4,4263.0,1258.0,453.0,-3113.0
1975,2016-05-23 09:00:24.687500,4,3436.0,968.0,-1264.0,-2558.0
1976,2016-05-23 09:00:24.700000,4,3236.0,-159.0,-1206.0,-1407.0
1977,2016-05-23 09:00:24.712500,4,2831.0,-510.0,-1695.0,-393.0
1978,2016-05-23 09:00:24.725000,4,2111.0,320.0,-2369.0,-64.0
1979,2016-05-23 09:00:24.737500,4,1356.0,740.0,-2048.0,-123.0
1980,2016-05-23 09:00:24.750000,4,1201.0,1029.0,-1862.0,-594.0
1981,2016-05-23 09:00:24.762500,4,1357.0,706.0,-1486.0,-1143.0
1982,2016-05-23 09:00:24.775000,4,1472.0,1495.0,-2169.0,-10614.0
1983,2016-05-23 09:00:24.787500,4,1422.0,-915.0,-917.0,-458.0
1984,2016-05-23 09:00:24.800000,4,1445.0,-452.0,-598.0,-522.0
1985,2016-05-23 09:00:24.812500,4,1467.0,-338.0,-517.0,-408.0
1986,2016-05-23 09:00:24.825000,4,1892.0,-372.0,-928.0,-175.0
1987,2016-05-23 09:00:24.837500,4,2529.0,-614.0,-1660.0,-42.0
1988,2016-05-23 09:00:24.850000,4,3149.0,-1017.0,-2025.0,64.0
1989,2016-05-23 09:00:24.862500,4,2913.0,-1481.0,-1758.0,103.0
